Timestamp,Accelerometer_X,Accelerometer_Y,Accelerometer_Z,ImageMatrix,Label
2024-09-10 12:13:31,0.1570500135421753,0.1050000041723251,9.829950332641602,"[[[0.39215686 0.45882353 0.50980392]
  [0.39215686 0.45882353 0.50980392]
  [0.38431373 0.45098039 0.50196078]
  ...
  [0.4627451  0.48627451 0.46666667]
  [0.4627451  0.48627451 0.46666667]
  [0.46666667 0.49019608 0.47058824]]

 [[0.39215686 0.45882353 0.50980392]
  [0.38431373 0.45098039 0.50196078]
  [0.38431373 0.45098039 0.50196078]
  ...
  [0.46666667 0.49019608 0.47058824]
  [0.46666667 0.49019608 0.47058824]
  [0.46666667 0.49019608 0.47058824]]

 [[0.38823529 0.45490196 0.50588235]
  [0.38431373 0.45098039 0.50196078]
  [0.39215686 0.45882353 0.50980392]
  ...
  [0.46666667 0.49019608 0.47058824]
  [0.46666667 0.49019608 0.47058824]
  [0.45882353 0.48235294 0.4627451 ]]

 ...

 [[0.8        0.80392157 0.78823529]
  [0.8        0.80392157 0.78823529]
  [0.80784314 0.81176471 0.79607843]
  ...
  [0.20392157 0.19215686 0.17647059]
  [0.20392157 0.19215686 0.17647059]
  [0.18039216 0.16862745 0.15294118]]

 [[0.81960784 0.80784314 0.78823529]
  [0.81960784 0.80784314 0.79215686]
  [0.81176471 0.79215686 0.79607843]
  ...
  [0.23137255 0.21960784 0.20392157]
  [0.22745098 0.21568627 0.2       ]
  [0.23921569 0.22745098 0.21176471]]

 [[0.81960784 0.80392157 0.79215686]
  [0.81568627 0.79607843 0.80784314]
  [0.81960784 0.8        0.80784314]
  ...
  [0.21176471 0.2        0.18431373]
  [0.23529412 0.22352941 0.20784314]
  [0.23137255 0.21960784 0.20392157]]]",0
2024-09-10 12:13:32,0.1570500135421753,0.1050000041723251,9.829950332641602,"[[[0.40392157 0.45490196 0.50980392]
  [0.39215686 0.45882353 0.50980392]
  [0.38431373 0.45098039 0.50196078]
  ...
  [0.46666667 0.49019608 0.46666667]
  [0.45490196 0.49019608 0.45098039]
  [0.44705882 0.49019608 0.45098039]]

 [[0.38823529 0.45490196 0.50588235]
  [0.38039216 0.45490196 0.50588235]
  [0.38431373 0.45098039 0.50196078]
  ...
  [0.45490196 0.49019608 0.4745098 ]
  [0.45490196 0.49411765 0.47058824]
  [0.45490196 0.49411765 0.47058824]]

 [[0.38039216 0.44705882 0.49803922]
  [0.38431373 0.45098039 0.50196078]
  [0.38431373 0.45098039 0.50196078]
  ...
  [0.44313725 0.48235294 0.45882353]
  [0.45098039 0.49019608 0.46666667]
  [0.44705882 0.48627451 0.4627451 ]]

 ...

 [[0.8        0.80392157 0.78823529]
  [0.8        0.80392157 0.78823529]
  [0.8        0.80392157 0.78823529]
  ...
  [0.21960784 0.2        0.20392157]
  [0.21176471 0.19215686 0.19607843]
  [0.19607843 0.17647059 0.18039216]]

 [[0.81176471 0.81568627 0.79607843]
  [0.8        0.80784314 0.78823529]
  [0.8        0.8        0.8       ]
  ...
  [0.23137255 0.21176471 0.21176471]
  [0.23529412 0.21568627 0.21960784]
  [0.22745098 0.20784314 0.21176471]]

 [[0.80392157 0.81176471 0.78431373]
  [0.80784314 0.80392157 0.80784314]
  [0.80392157 0.8        0.80392157]
  ...
  [0.21568627 0.20392157 0.18823529]
  [0.23137255 0.21568627 0.21176471]
  [0.24705882 0.22745098 0.23137255]]]",0
2024-09-10 12:13:33,0.1570500135421753,0.1050000041723251,9.829950332641602,"[[[0.37647059 0.45490196 0.5254902 ]
  [0.38431373 0.44313725 0.51764706]
  [0.38431373 0.44313725 0.51764706]
  ...
  [0.44705882 0.47843137 0.4745098 ]
  [0.46666667 0.49019608 0.47058824]
  [0.46666667 0.49019608 0.47058824]]

 [[0.39215686 0.44705882 0.5254902 ]
  [0.39607843 0.45882353 0.50980392]
  [0.38823529 0.45882353 0.50196078]
  ...
  [0.45882353 0.49019608 0.48627451]
  [0.46666667 0.49019608 0.47058824]
  [0.45882353 0.48235294 0.4627451 ]]

 [[0.39215686 0.45882353 0.50980392]
  [0.39215686 0.45882353 0.50980392]
  [0.39215686 0.45882353 0.50980392]
  ...
  [0.45882353 0.49019608 0.48627451]
  [0.45490196 0.49411765 0.47058824]
  [0.44705882 0.48627451 0.4627451 ]]

 ...

 [[0.80784314 0.80784314 0.80784314]
  [0.80784314 0.80784314 0.80784314]
  [0.80784314 0.80784314 0.80784314]
  ...
  [0.20392157 0.20392157 0.20392157]
  [0.19215686 0.19215686 0.19215686]
  [0.18431373 0.18431373 0.18431373]]

 [[0.80392157 0.8        0.80392157]
  [0.80784314 0.81176471 0.80392157]
  [0.80784314 0.80784314 0.80784314]
  ...
  [0.22352941 0.22352941 0.22352941]
  [0.21960784 0.21176471 0.21176471]
  [0.23921569 0.21960784 0.22352941]]

 [[0.80784314 0.81568627 0.78823529]
  [0.80784314 0.81176471 0.80392157]
  [0.80784314 0.81176471 0.79607843]
  ...
  [0.2        0.2        0.2       ]
  [0.22745098 0.21960784 0.21960784]
  [0.23921569 0.21960784 0.22352941]]]",0
2024-09-10 12:13:34,0.1570500135421753,0.1050000041723251,9.829950332641602,"[[[0.39215686 0.45098039 0.5254902 ]
  [0.39215686 0.45098039 0.5254902 ]
  [0.38823529 0.44313725 0.52941176]
  ...
  [0.45098039 0.49019608 0.46666667]
  [0.45098039 0.49019608 0.46666667]
  [0.45098039 0.49019608 0.46666667]]

 [[0.39215686 0.44705882 0.5254902 ]
  [0.38039216 0.45098039 0.49803922]
  [0.38431373 0.45098039 0.49803922]
  ...
  [0.4627451  0.49411765 0.49019608]
  [0.45098039 0.48235294 0.47843137]
  [0.45882353 0.49019608 0.48627451]]

 [[0.38039216 0.44705882 0.49803922]
  [0.39215686 0.45882353 0.50980392]
  [0.38823529 0.45490196 0.50588235]
  ...
  [0.4627451  0.49411765 0.49019608]
  [0.45882353 0.49019608 0.48627451]
  [0.45882353 0.49019608 0.48627451]]

 ...

 [[0.80784314 0.80784314 0.80784314]
  [0.81176471 0.81176471 0.81176471]
  [0.80784314 0.80784314 0.80784314]
  ...
  [0.20392157 0.20392157 0.20392157]
  [0.18823529 0.18823529 0.18823529]
  [0.16862745 0.16862745 0.16862745]]

 [[0.8        0.79607843 0.80392157]
  [0.80784314 0.81176471 0.80392157]
  [0.80784314 0.80784314 0.80784314]
  ...
  [0.21568627 0.21568627 0.21568627]
  [0.22352941 0.22352941 0.22352941]
  [0.20392157 0.20392157 0.20392157]]

 [[0.79607843 0.80392157 0.77647059]
  [0.80784314 0.81176471 0.80392157]
  [0.80784314 0.81176471 0.79607843]
  ...
  [0.2        0.2        0.2       ]
  [0.22352941 0.22352941 0.22352941]
  [0.23529412 0.23529412 0.23529412]]]",0
2024-09-10 12:13:35,0.1570500135421753,0.1050000041723251,9.829950332641602,"[[[0.38431373 0.45098039 0.50196078]
  [0.39215686 0.45882353 0.50980392]
  [0.38431373 0.45098039 0.50196078]
  ...
  [0.45098039 0.48235294 0.47843137]
  [0.4745098  0.49803922 0.49411765]
  [0.46666667 0.48627451 0.48235294]]

 [[0.39215686 0.45882353 0.50980392]
  [0.39215686 0.45882353 0.50980392]
  [0.39215686 0.45882353 0.50980392]
  ...
  [0.44313725 0.48627451 0.47843137]
  [0.45882353 0.49803922 0.4745098 ]
  [0.45098039 0.49019608 0.46666667]]

 [[0.39607843 0.4627451  0.51372549]
  [0.39215686 0.45882353 0.50980392]
  [0.39215686 0.45882353 0.50980392]
  ...
  [0.45098039 0.48235294 0.48235294]
  [0.45882353 0.49019608 0.48627451]
  [0.45882353 0.49019608 0.48627451]]

 ...

 [[0.80784314 0.80784314 0.80784314]
  [0.80784314 0.80784314 0.80784314]
  [0.80784314 0.80784314 0.80784314]
  ...
  [0.20392157 0.20392157 0.20392157]
  [0.18823529 0.18823529 0.18823529]
  [0.17254902 0.17254902 0.17254902]]

 [[0.80784314 0.80784314 0.80784314]
  [0.80784314 0.80784314 0.80784314]
  [0.80784314 0.80392157 0.81568627]
  ...
  [0.21960784 0.21960784 0.21568627]
  [0.22352941 0.21568627 0.21568627]
  [0.23137255 0.21176471 0.21568627]]

 [[0.80784314 0.81568627 0.79215686]
  [0.80784314 0.80784314 0.80784314]
  [0.80784314 0.80784314 0.81176471]
  ...
  [0.21176471 0.21568627 0.2       ]
  [0.22745098 0.21960784 0.21568627]
  [0.23529412 0.21568627 0.21960784]]]",0
2024-09-10 12:13:36,0.1570500135421753,0.1050000041723251,9.829950332641602,"[[[0.38431373 0.45098039 0.50196078]
  [0.38431373 0.45098039 0.50196078]
  [0.38823529 0.45490196 0.50588235]
  ...
  [0.45098039 0.48235294 0.47843137]
  [0.4627451  0.48235294 0.4745098 ]
  [0.4627451  0.48627451 0.46666667]]

 [[0.38431373 0.45098039 0.50196078]
  [0.39215686 0.45882353 0.50980392]
  [0.39215686 0.45882353 0.50980392]
  ...
  [0.45098039 0.49803922 0.4745098 ]
  [0.45490196 0.49411765 0.47058824]
  [0.45490196 0.49411765 0.47058824]]

 [[0.38431373 0.45098039 0.50196078]
  [0.39215686 0.45882353 0.50980392]
  [0.39215686 0.45882353 0.50980392]
  ...
  [0.45490196 0.49411765 0.47058824]
  [0.45490196 0.49411765 0.47058824]
  [0.45882353 0.49803922 0.4745098 ]]

 ...

 [[0.8        0.8        0.8       ]
  [0.80784314 0.80784314 0.80784314]
  [0.80784314 0.80784314 0.80784314]
  ...
  [0.18431373 0.18823529 0.18431373]
  [0.19215686 0.19607843 0.18039216]
  [0.17647059 0.18039216 0.16470588]]

 [[0.80784314 0.81176471 0.8       ]
  [0.80784314 0.80392157 0.81568627]
  [0.80784314 0.80784314 0.80784314]
  ...
  [0.21568627 0.21568627 0.21568627]
  [0.21960784 0.21960784 0.21960784]
  [0.21568627 0.21568627 0.21568627]]

 [[0.81960784 0.80784314 0.78823529]
  [0.80784314 0.81568627 0.79607843]
  [0.80784314 0.81568627 0.79607843]
  ...
  [0.20392157 0.20392157 0.20392157]
  [0.21960784 0.21960784 0.21960784]
  [0.22352941 0.22352941 0.22352941]]]",0
2024-09-10 12:13:37,0.1570500135421753,0.1050000041723251,9.829950332641602,"[[[0.36862745 0.43529412 0.48627451]
  [0.37647059 0.44313725 0.49411765]
  [0.37647059 0.44313725 0.49411765]
  ...
  [0.44313725 0.4745098  0.47058824]
  [0.43921569 0.47058824 0.46666667]
  [0.43921569 0.47058824 0.46666667]]

 [[0.37647059 0.44313725 0.49411765]
  [0.37254902 0.43921569 0.49019608]
  [0.36862745 0.43529412 0.48627451]
  ...
  [0.44313725 0.4745098  0.47058824]
  [0.44313725 0.4745098  0.47058824]
  [0.43529412 0.46666667 0.4627451 ]]

 [[0.36862745 0.43529412 0.48627451]
  [0.36470588 0.43137255 0.48235294]
  [0.37647059 0.44313725 0.49411765]
  ...
  [0.44313725 0.4745098  0.47058824]
  [0.44705882 0.47843137 0.4745098 ]
  [0.44313725 0.4745098  0.47058824]]

 ...

 [[0.79215686 0.79215686 0.79215686]
  [0.79215686 0.79215686 0.79215686]
  [0.79215686 0.79215686 0.79215686]
  ...
  [0.18039216 0.18039216 0.18039216]
  [0.18823529 0.18039216 0.18039216]
  [0.17647059 0.15686275 0.16078431]]

 [[0.79215686 0.79215686 0.79215686]
  [0.79215686 0.79215686 0.79215686]
  [0.79215686 0.78823529 0.8       ]
  ...
  [0.21960784 0.21176471 0.21176471]
  [0.20784314 0.19607843 0.19607843]
  [0.21960784 0.2        0.20392157]]

 [[0.79215686 0.8        0.77647059]
  [0.79215686 0.79215686 0.79215686]
  [0.79215686 0.79215686 0.79607843]
  ...
  [0.19215686 0.19215686 0.19215686]
  [0.21568627 0.21568627 0.21568627]
  [0.21960784 0.21960784 0.21960784]]]",0
2024-09-10 12:13:38,0.1570500135421753,0.1050000041723251,9.829950332641602,"[[[0.37254902 0.43921569 0.49019608]
  [0.37647059 0.44313725 0.49411765]
  [0.37254902 0.43921569 0.49019608]
  ...
  [0.44313725 0.47843137 0.45490196]
  [0.44313725 0.46666667 0.44705882]
  [0.45098039 0.4745098  0.45490196]]

 [[0.38431373 0.45098039 0.50196078]
  [0.37647059 0.44313725 0.49411765]
  [0.37647059 0.44313725 0.49411765]
  ...
  [0.43137255 0.47058824 0.4627451 ]
  [0.43921569 0.47843137 0.45490196]
  [0.43921569 0.47843137 0.45490196]]

 [[0.37647059 0.44313725 0.49411765]
  [0.36078431 0.42745098 0.47843137]
  [0.38039216 0.44705882 0.49803922]
  ...
  [0.43921569 0.4745098  0.4627451 ]
  [0.43137255 0.47058824 0.44705882]
  [0.43529412 0.4745098  0.45098039]]

 ...

 [[0.79215686 0.79215686 0.79215686]
  [0.79215686 0.79215686 0.79215686]
  [0.79215686 0.79215686 0.79215686]
  ...
  [0.18431373 0.18431373 0.18431373]
  [0.17647059 0.17647059 0.17647059]
  [0.16078431 0.16078431 0.16078431]]

 [[0.79215686 0.79607843 0.78431373]
  [0.79215686 0.78823529 0.79607843]
  [0.79215686 0.79215686 0.79215686]
  ...
  [0.20784314 0.20392157 0.20392157]
  [0.19215686 0.19215686 0.19215686]
  [0.20784314 0.20784314 0.20784314]]

 [[0.79215686 0.79607843 0.77254902]
  [0.79607843 0.80392157 0.78823529]
  [0.79607843 0.80392157 0.78039216]
  ...
  [0.18431373 0.18431373 0.18431373]
  [0.19607843 0.21568627 0.21176471]
  [0.20392157 0.22352941 0.21960784]]]",0
2024-09-10 12:13:39,0.1570500135421753,0.1050000041723251,9.829950332641602,"[[[0.35294118 0.41176471 0.48627451]
  [0.35294118 0.41960784 0.47058824]
  [0.36078431 0.42745098 0.47843137]
  ...
  [0.43137255 0.45490196 0.43529412]
  [0.42745098 0.45098039 0.43137255]
  [0.42745098 0.45098039 0.43137255]]

 [[0.35294118 0.42352941 0.46666667]
  [0.35294118 0.41960784 0.47058824]
  [0.35294118 0.41960784 0.47058824]
  ...
  [0.42745098 0.45098039 0.43137255]
  [0.42745098 0.45098039 0.43137255]
  [0.42745098 0.45098039 0.43137255]]

 [[0.35294118 0.41960784 0.47058824]
  [0.35686275 0.42352941 0.4745098 ]
  [0.35294118 0.41960784 0.47058824]
  ...
  [0.41176471 0.45490196 0.43529412]
  [0.41960784 0.44313725 0.43921569]
  [0.43137255 0.45098039 0.44705882]]

 ...

 [[0.78431373 0.78431373 0.78431373]
  [0.77647059 0.78431373 0.78431373]
  [0.79215686 0.79215686 0.79215686]
  ...
  [0.17647059 0.17647059 0.17647059]
  [0.18823529 0.18039216 0.18039216]
  [0.18431373 0.16470588 0.16862745]]

 [[0.79215686 0.78039216 0.78823529]
  [0.79215686 0.79607843 0.78823529]
  [0.79215686 0.79215686 0.79215686]
  ...
  [0.18431373 0.19607843 0.18039216]
  [0.19607843 0.2        0.18431373]
  [0.20392157 0.20784314 0.19215686]]

 [[0.80392157 0.79215686 0.76862745]
  [0.80392157 0.78823529 0.78431373]
  [0.80392157 0.78823529 0.77254902]
  ...
  [0.19215686 0.19215686 0.17647059]
  [0.21568627 0.20392157 0.18823529]
  [0.21568627 0.20392157 0.18823529]]]",0
2024-09-10 12:13:40,0.1570500135421753,0.1050000041723251,9.829950332641602,"[[[0.36862745 0.41960784 0.4745098 ]
  [0.36862745 0.41960784 0.4745098 ]
  [0.36862745 0.41960784 0.4745098 ]
  ...
  [0.42745098 0.45098039 0.43137255]
  [0.41568627 0.45490196 0.43137255]
  [0.41960784 0.45882353 0.43529412]]

 [[0.36078431 0.42352941 0.4745098 ]
  [0.35294118 0.41960784 0.47058824]
  [0.35294118 0.41960784 0.47058824]
  ...
  [0.43137255 0.45098039 0.43137255]
  [0.41960784 0.44313725 0.42352941]
  [0.42745098 0.45098039 0.43137255]]

 [[0.36078431 0.42352941 0.4745098 ]
  [0.35294118 0.41960784 0.47058824]
  [0.35294118 0.41960784 0.47058824]
  ...
  [0.42745098 0.45098039 0.43137255]
  [0.42745098 0.45098039 0.43137255]
  [0.43137255 0.45490196 0.43529412]]

 ...

 [[0.78431373 0.78431373 0.78431373]
  [0.78431373 0.78431373 0.78431373]
  [0.79215686 0.79215686 0.79215686]
  ...
  [0.18823529 0.18823529 0.18823529]
  [0.16470588 0.16470588 0.16470588]
  [0.16078431 0.16078431 0.16078431]]

 [[0.78431373 0.78431373 0.78431373]
  [0.77647059 0.78431373 0.78823529]
  [0.78431373 0.78039216 0.78823529]
  ...
  [0.19607843 0.19607843 0.19607843]
  [0.20392157 0.20392157 0.20392157]
  [0.21176471 0.21176471 0.21176471]]

 [[0.79607843 0.78039216 0.77647059]
  [0.78431373 0.78039216 0.79215686]
  [0.79215686 0.78823529 0.79607843]
  ...
  [0.17254902 0.17254902 0.17254902]
  [0.20392157 0.20392157 0.20392157]
  [0.20392157 0.20392157 0.20392157]]]",0
2024-09-10 12:13:41,0.1570500135421753,0.1050000041723251,9.829950332641602,"[[[0.36470588 0.42352941 0.45882353]
  [0.36078431 0.41960784 0.45490196]
  [0.36078431 0.41960784 0.45490196]
  ...
  [0.43921569 0.46666667 0.42745098]
  [0.45098039 0.4627451  0.42745098]
  [0.45098039 0.4627451  0.42745098]]

 [[0.36470588 0.42352941 0.45882353]
  [0.36470588 0.42352941 0.45882353]
  [0.36470588 0.42352941 0.45882353]
  ...
  [0.44705882 0.48235294 0.44313725]
  [0.43529412 0.46666667 0.42745098]
  [0.43529412 0.46666667 0.42745098]]

 [[0.36078431 0.42745098 0.4627451 ]
  [0.36470588 0.42352941 0.45882353]
  [0.35686275 0.41568627 0.45098039]
  ...
  [0.44313725 0.4745098  0.43529412]
  [0.44705882 0.47843137 0.43921569]
  [0.43921569 0.47058824 0.43137255]]

 ...

 [[0.34901961 0.38823529 0.48235294]
  [0.34901961 0.38823529 0.48235294]
  [0.34509804 0.38431373 0.47843137]
  ...
  [0.19607843 0.18431373 0.16862745]
  [0.19215686 0.16470588 0.15294118]
  [0.19215686 0.16470588 0.15294118]]

 [[0.3254902  0.37254902 0.46666667]
  [0.33333333 0.37254902 0.47058824]
  [0.34117647 0.38039216 0.47058824]
  ...
  [0.24313725 0.23137255 0.21568627]
  [0.24313725 0.21568627 0.20392157]
  [0.23137255 0.20392157 0.19215686]]

 [[0.34509804 0.36078431 0.45098039]
  [0.32941176 0.36862745 0.45882353]
  [0.31764706 0.36470588 0.43137255]
  ...
  [0.22352941 0.21176471 0.19607843]
  [0.27058824 0.24313725 0.23137255]
  [0.27843137 0.25098039 0.23921569]]]",0
2024-09-10 12:13:42,0.1570500135421753,0.1050000041723251,9.829950332641602,"[[[0.35294118 0.41176471 0.48627451]
  [0.35294118 0.41960784 0.47058824]
  [0.35294118 0.41960784 0.47058824]
  ...
  [0.42745098 0.45098039 0.43137255]
  [0.42745098 0.45098039 0.43137255]
  [0.43529412 0.45882353 0.43921569]]

 [[0.36078431 0.43137255 0.4745098 ]
  [0.35294118 0.41960784 0.47058824]
  [0.35294118 0.41960784 0.47058824]
  ...
  [0.42745098 0.45098039 0.43137255]
  [0.42745098 0.45098039 0.43137255]
  [0.42745098 0.45098039 0.43137255]]

 [[0.35294118 0.41960784 0.47058824]
  [0.35294118 0.41960784 0.47058824]
  [0.35294118 0.41960784 0.47058824]
  ...
  [0.42745098 0.45098039 0.43137255]
  [0.42745098 0.45098039 0.43137255]
  [0.42745098 0.45098039 0.43137255]]

 ...

 [[0.78431373 0.78823529 0.78039216]
  [0.78431373 0.8        0.78039216]
  [0.79215686 0.79607843 0.78039216]
  ...
  [0.18823529 0.18823529 0.18823529]
  [0.18823529 0.18823529 0.18823529]
  [0.16470588 0.16470588 0.16470588]]

 [[0.79215686 0.78039216 0.78823529]
  [0.79215686 0.79607843 0.78823529]
  [0.79215686 0.79215686 0.79215686]
  ...
  [0.20392157 0.20392157 0.20392157]
  [0.20392157 0.20392157 0.20392157]
  [0.2        0.2        0.2       ]]

 [[0.79607843 0.78431373 0.76078431]
  [0.80392157 0.78823529 0.78431373]
  [0.80392157 0.78823529 0.77254902]
  ...
  [0.2        0.18039216 0.18431373]
  [0.20784314 0.18823529 0.19215686]
  [0.21568627 0.19607843 0.2       ]]]",0
2024-09-10 12:13:43,0.1570500135421753,0.1050000041723251,9.829950332641602,"[[[0.38431373 0.45098039 0.50196078]
  [0.38431373 0.45098039 0.50196078]
  [0.38039216 0.44705882 0.49803922]
  ...
  [0.44705882 0.48627451 0.4627451 ]
  [0.45882353 0.48235294 0.4627451 ]
  [0.45882353 0.48235294 0.4627451 ]]

 [[0.38431373 0.45098039 0.50196078]
  [0.39215686 0.45882353 0.50980392]
  [0.38431373 0.45098039 0.50196078]
  ...
  [0.45490196 0.49411765 0.47058824]
  [0.45882353 0.48235294 0.4627451 ]
  [0.45882353 0.48235294 0.4627451 ]]

 [[0.38039216 0.44705882 0.49803922]
  [0.38431373 0.45098039 0.50196078]
  [0.38431373 0.45098039 0.50196078]
  ...
  [0.44313725 0.48627451 0.4627451 ]
  [0.44705882 0.48627451 0.4627451 ]
  [0.44705882 0.48627451 0.4627451 ]]

 ...

 [[0.8        0.8        0.8       ]
  [0.80392157 0.80392157 0.80392157]
  [0.80784314 0.80784314 0.80784314]
  ...
  [0.19215686 0.19215686 0.19215686]
  [0.18431373 0.18431373 0.18431373]
  [0.16862745 0.16862745 0.16862745]]

 [[0.8        0.80392157 0.79215686]
  [0.80784314 0.80392157 0.81176471]
  [0.80784314 0.80784314 0.80784314]
  ...
  [0.23921569 0.23921569 0.23921569]
  [0.23137255 0.23137255 0.23137255]
  [0.23137255 0.23137255 0.23137255]]

 [[0.80784314 0.81568627 0.79215686]
  [0.80784314 0.81568627 0.8       ]
  [0.80784314 0.81568627 0.79215686]
  ...
  [0.20392157 0.20392157 0.20392157]
  [0.23529412 0.23529412 0.23529412]
  [0.23921569 0.23921569 0.23921569]]]",0
2024-09-10 12:13:44,0.1570500135421753,0.1050000041723251,9.829950332641602,"[[[0.39215686 0.45882353 0.50980392]
  [0.38823529 0.45490196 0.50588235]
  [0.38431373 0.45098039 0.50196078]
  ...
  [0.45098039 0.48627451 0.4627451 ]
  [0.45882353 0.48235294 0.4627451 ]
  [0.45490196 0.47843137 0.45882353]]

 [[0.39215686 0.45882353 0.50980392]
  [0.38431373 0.45098039 0.50196078]
  [0.38431373 0.45098039 0.50196078]
  ...
  [0.44313725 0.49019608 0.46666667]
  [0.45490196 0.49411765 0.47058824]
  [0.44705882 0.48627451 0.4627451 ]]

 [[0.39215686 0.45882353 0.50980392]
  [0.39607843 0.4627451  0.51372549]
  [0.39215686 0.45882353 0.50980392]
  ...
  [0.44705882 0.48627451 0.4627451 ]
  [0.44313725 0.48235294 0.45882353]
  [0.44705882 0.48627451 0.4627451 ]]

 ...

 [[0.8        0.80392157 0.79607843]
  [0.80784314 0.80784314 0.80784314]
  [0.80784314 0.80784314 0.80784314]
  ...
  [0.18823529 0.18823529 0.18823529]
  [0.17647059 0.17647059 0.17647059]
  [0.16470588 0.16470588 0.16470588]]

 [[0.80392157 0.80784314 0.79607843]
  [0.80784314 0.80392157 0.81176471]
  [0.80784314 0.80784314 0.80784314]
  ...
  [0.22352941 0.24313725 0.23921569]
  [0.21568627 0.23529412 0.23137255]
  [0.21176471 0.23137255 0.22745098]]

 [[0.80392157 0.81176471 0.78431373]
  [0.80784314 0.81568627 0.8       ]
  [0.80784314 0.81568627 0.79215686]
  ...
  [0.21568627 0.21568627 0.21568627]
  [0.22745098 0.22745098 0.22745098]
  [0.23137255 0.23137255 0.23137255]]]",0
2024-09-10 12:13:45,0.1570500135421753,0.1050000041723251,9.829950332641602,"[[[0.38431373 0.45098039 0.50196078]
  [0.38823529 0.45490196 0.50588235]
  [0.38431373 0.45098039 0.50196078]
  ...
  [0.44705882 0.48627451 0.4627451 ]
  [0.44705882 0.48627451 0.4627451 ]
  [0.44705882 0.48627451 0.4627451 ]]

 [[0.38431373 0.45098039 0.50196078]
  [0.39215686 0.45882353 0.50980392]
  [0.4        0.46666667 0.51764706]
  ...
  [0.46666667 0.50588235 0.48235294]
  [0.44705882 0.48627451 0.4627451 ]
  [0.44705882 0.48627451 0.4627451 ]]

 [[0.38431373 0.45098039 0.50196078]
  [0.38039216 0.44705882 0.49803922]
  [0.39215686 0.45882353 0.50980392]
  ...
  [0.44705882 0.48627451 0.4627451 ]
  [0.44705882 0.48627451 0.4627451 ]
  [0.45098039 0.49019608 0.46666667]]

 ...

 [[0.80784314 0.80784314 0.80784314]
  [0.8        0.8        0.8       ]
  [0.80784314 0.80784314 0.80784314]
  ...
  [0.20392157 0.20392157 0.20392157]
  [0.18039216 0.18039216 0.18039216]
  [0.16862745 0.16862745 0.16862745]]

 [[0.8        0.80392157 0.79215686]
  [0.80784314 0.80392157 0.81176471]
  [0.80784314 0.80784314 0.80784314]
  ...
  [0.24313725 0.24313725 0.24313725]
  [0.22745098 0.22745098 0.22745098]
  [0.23529412 0.23529412 0.23529412]]

 [[0.80784314 0.81568627 0.79215686]
  [0.80784314 0.81568627 0.8       ]
  [0.80784314 0.81568627 0.79215686]
  ...
  [0.21568627 0.21568627 0.21568627]
  [0.22745098 0.22745098 0.22745098]
  [0.23137255 0.23137255 0.23137255]]]",0
2024-09-10 12:13:46,0.1570500135421753,0.1050000041723251,9.829950332641602,"[[[0.39215686 0.45098039 0.5254902 ]
  [0.38823529 0.45490196 0.50980392]
  [0.38039216 0.44705882 0.49803922]
  ...
  [0.44705882 0.48627451 0.4627451 ]
  [0.44705882 0.48627451 0.4627451 ]
  [0.44705882 0.48627451 0.4627451 ]]

 [[0.38431373 0.45490196 0.49803922]
  [0.39607843 0.4627451  0.51372549]
  [0.38823529 0.45490196 0.50588235]
  ...
  [0.45490196 0.49411765 0.47058824]
  [0.44705882 0.48627451 0.4627451 ]
  [0.44705882 0.48627451 0.4627451 ]]

 [[0.38431373 0.45098039 0.50196078]
  [0.38431373 0.45098039 0.50196078]
  [0.38431373 0.45098039 0.50196078]
  ...
  [0.45490196 0.49411765 0.47058824]
  [0.45882353 0.49803922 0.4745098 ]
  [0.45098039 0.49019608 0.46666667]]

 ...

 [[0.8        0.80392157 0.79607843]
  [0.80784314 0.80784314 0.80784314]
  [0.80784314 0.80784314 0.80784314]
  ...
  [0.21960784 0.21960784 0.21960784]
  [0.20784314 0.20784314 0.20784314]
  [0.18823529 0.18823529 0.18823529]]

 [[0.80784314 0.81176471 0.8       ]
  [0.80784314 0.80392157 0.81176471]
  [0.80784314 0.80784314 0.80784314]
  ...
  [0.21568627 0.21568627 0.21568627]
  [0.22745098 0.22745098 0.22745098]
  [0.22745098 0.22745098 0.22745098]]

 [[0.80392157 0.81176471 0.78431373]
  [0.80784314 0.81176471 0.79607843]
  [0.80392157 0.81176471 0.79215686]
  ...
  [0.20784314 0.20784314 0.20784314]
  [0.21568627 0.21568627 0.21568627]
  [0.22745098 0.22745098 0.22745098]]]",0
2024-09-10 12:13:47,0.1570500135421753,0.1050000041723251,9.829950332641602,"[[[0.4        0.44313725 0.52156863]
  [0.4        0.45098039 0.50588235]
  [0.4        0.45098039 0.50588235]
  ...
  [0.45490196 0.49411765 0.47058824]
  [0.43921569 0.47843137 0.45490196]
  [0.45098039 0.49019608 0.46666667]]

 [[0.39215686 0.4627451  0.50588235]
  [0.37647059 0.44313725 0.49411765]
  [0.38823529 0.45490196 0.50588235]
  ...
  [0.45490196 0.49411765 0.47058824]
  [0.45882353 0.49803922 0.4745098 ]
  [0.44313725 0.48235294 0.45882353]]

 [[0.38823529 0.4627451  0.49411765]
  [0.38431373 0.45882353 0.49019608]
  [0.39607843 0.47058824 0.50196078]
  ...
  [0.45490196 0.49411765 0.47058824]
  [0.45098039 0.49019608 0.46666667]
  [0.44705882 0.48627451 0.4627451 ]]

 ...

 [[0.8        0.80392157 0.79607843]
  [0.8        0.80392157 0.78823529]
  [0.80784314 0.81176471 0.79607843]
  ...
  [0.21176471 0.21176471 0.21176471]
  [0.2        0.2        0.2       ]
  [0.19215686 0.19215686 0.19215686]]

 [[0.8        0.8        0.8       ]
  [0.80784314 0.80784314 0.80784314]
  [0.80784314 0.80784314 0.80784314]
  ...
  [0.23137255 0.23137255 0.23137255]
  [0.22745098 0.21960784 0.21960784]
  [0.24313725 0.22352941 0.22745098]]

 [[0.80392157 0.81176471 0.78431373]
  [0.8        0.80392157 0.79215686]
  [0.80784314 0.81568627 0.79607843]
  ...
  [0.21568627 0.20392157 0.18823529]
  [0.23137255 0.21960784 0.20392157]
  [0.23921569 0.22745098 0.21176471]]]",0
2024-09-10 12:13:48,0.1570500135421753,0.1050000041723251,9.829950332641602,"[[[0.38823529 0.45490196 0.50588235]
  [0.38039216 0.44705882 0.49803922]
  [0.38431373 0.45098039 0.50196078]
  ...
  [0.45098039 0.49019608 0.46666667]
  [0.45098039 0.49019608 0.46666667]
  [0.45490196 0.49411765 0.47058824]]

 [[0.39215686 0.45882353 0.50980392]
  [0.38431373 0.45098039 0.50196078]
  [0.38431373 0.45098039 0.50196078]
  ...
  [0.45490196 0.49411765 0.47058824]
  [0.45882353 0.49803922 0.4745098 ]
  [0.45490196 0.49411765 0.47058824]]

 [[0.38431373 0.45098039 0.50196078]
  [0.38431373 0.45098039 0.50196078]
  [0.38431373 0.45098039 0.50196078]
  ...
  [0.45490196 0.49411765 0.47058824]
  [0.45490196 0.49411765 0.47058824]
  [0.45098039 0.49019608 0.46666667]]

 ...

 [[0.80784314 0.81176471 0.80392157]
  [0.80784314 0.81176471 0.79607843]
  [0.80784314 0.81176471 0.79607843]
  ...
  [0.21176471 0.21176471 0.21176471]
  [0.20392157 0.20392157 0.20392157]
  [0.18823529 0.18823529 0.18823529]]

 [[0.80784314 0.81176471 0.80392157]
  [0.80784314 0.80392157 0.81568627]
  [0.8        0.8        0.8       ]
  ...
  [0.22352941 0.22352941 0.22352941]
  [0.21568627 0.21176471 0.21568627]
  [0.21960784 0.21960784 0.21960784]]

 [[0.80784314 0.81568627 0.79215686]
  [0.80784314 0.81568627 0.79607843]
  [0.80392157 0.80784314 0.79215686]
  ...
  [0.19607843 0.2        0.18431373]
  [0.21960784 0.21960784 0.21568627]
  [0.21960784 0.21960784 0.21960784]]]",0
2024-09-10 12:13:49,0.1570500135421753,0.1050000041723251,9.829950332641602,"[[[0.38431373 0.45098039 0.50196078]
  [0.37647059 0.44313725 0.49411765]
  [0.38431373 0.45098039 0.50196078]
  ...
  [0.44705882 0.48627451 0.4627451 ]
  [0.45490196 0.47843137 0.45882353]
  [0.46666667 0.49019608 0.47058824]]

 [[0.38431373 0.45098039 0.50196078]
  [0.39215686 0.45882353 0.50980392]
  [0.38431373 0.45098039 0.50196078]
  ...
  [0.45490196 0.49411765 0.47058824]
  [0.45882353 0.48235294 0.4627451 ]
  [0.46666667 0.49019608 0.47058824]]

 [[0.38431373 0.45098039 0.50196078]
  [0.38431373 0.45098039 0.50196078]
  [0.38039216 0.44705882 0.49803922]
  ...
  [0.44705882 0.48627451 0.4627451 ]
  [0.46666667 0.49019608 0.47058824]
  [0.4627451  0.48627451 0.46666667]]

 ...

 [[0.80784314 0.80784314 0.80784314]
  [0.80784314 0.80784314 0.80784314]
  [0.80784314 0.80784314 0.80784314]
  ...
  [0.21176471 0.21176471 0.21176471]
  [0.21176471 0.21176471 0.21176471]
  [0.17647059 0.17647059 0.17647059]]

 [[0.8        0.8        0.8       ]
  [0.8        0.80784314 0.81176471]
  [0.80784314 0.80392157 0.81176471]
  ...
  [0.22352941 0.22352941 0.22352941]
  [0.22352941 0.21960784 0.22745098]
  [0.21568627 0.21176471 0.22745098]]

 [[0.81960784 0.8        0.8       ]
  [0.80784314 0.80392157 0.81568627]
  [0.80784314 0.80392157 0.81176471]
  ...
  [0.20392157 0.20392157 0.20392157]
  [0.22352941 0.21960784 0.22745098]
  [0.22352941 0.21960784 0.23529412]]]",0
2024-09-10 12:13:50,0.1570500135421753,0.1050000041723251,9.829950332641602,"[[[0.37647059 0.44313725 0.49411765]
  [0.37254902 0.44705882 0.47843137]
  [0.37647059 0.45098039 0.48235294]
  ...
  [0.45882353 0.48235294 0.4627451 ]
  [0.4627451  0.49019608 0.4627451 ]
  [0.45882353 0.49019608 0.45098039]]

 [[0.37647059 0.45098039 0.48235294]
  [0.37647059 0.45098039 0.47843137]
  [0.37647059 0.45098039 0.48235294]
  ...
  [0.45490196 0.49803922 0.45882353]
  [0.45490196 0.49019608 0.45098039]
  [0.46666667 0.49803922 0.45882353]]

 [[0.37647059 0.45098039 0.48235294]
  [0.37647059 0.45098039 0.48235294]
  [0.38039216 0.45490196 0.48627451]
  ...
  [0.45490196 0.49803922 0.45882353]
  [0.45882353 0.49019608 0.45098039]
  [0.45882353 0.49019608 0.45098039]]

 ...

 [[0.54509804 0.56078431 0.60392157]
  [0.55686275 0.57254902 0.61568627]
  [0.56078431 0.57647059 0.61960784]
  ...
  [0.19215686 0.17647059 0.16470588]
  [0.19607843 0.17647059 0.18039216]
  [0.18823529 0.16862745 0.17254902]]

 [[0.56470588 0.57647059 0.62745098]
  [0.56470588 0.57647059 0.63137255]
  [0.56862745 0.58039216 0.63137255]
  ...
  [0.21568627 0.21568627 0.21568627]
  [0.21176471 0.21176471 0.21176471]
  [0.21568627 0.21568627 0.21568627]]

 [[0.55294118 0.56862745 0.61568627]
  [0.56078431 0.57254902 0.62745098]
  [0.56470588 0.58039216 0.62745098]
  ...
  [0.2        0.2        0.2       ]
  [0.24313725 0.24313725 0.24313725]
  [0.23921569 0.23921569 0.23921569]]]",0
2024-09-10 12:13:51,0.1570500135421753,0.1050000041723251,9.829950332641602,"[[[0.37647059 0.45098039 0.48235294]
  [0.37647059 0.45098039 0.48235294]
  [0.37647059 0.45098039 0.48235294]
  ...
  [0.44705882 0.49019608 0.45098039]
  [0.45882353 0.49019608 0.45098039]
  [0.45882353 0.49019608 0.45098039]]

 [[0.37647059 0.45098039 0.48235294]
  [0.37647059 0.45098039 0.48235294]
  [0.37647059 0.45098039 0.48235294]
  ...
  [0.45490196 0.49803922 0.45882353]
  [0.45882353 0.49019608 0.45098039]
  [0.45882353 0.49019608 0.45098039]]

 [[0.37254902 0.44705882 0.47843137]
  [0.37647059 0.45098039 0.48235294]
  [0.37647059 0.45098039 0.48235294]
  ...
  [0.45098039 0.50196078 0.45882353]
  [0.44705882 0.49019608 0.45098039]
  [0.44705882 0.49019608 0.45098039]]

 ...

 [[0.4        0.42745098 0.48627451]
  [0.4        0.42745098 0.48627451]
  [0.39215686 0.41960784 0.47843137]
  ...
  [0.19607843 0.19607843 0.19215686]
  [0.17647059 0.18039216 0.16470588]
  [0.16470588 0.16862745 0.15294118]]

 [[0.37254902 0.4        0.45882353]
  [0.37254902 0.4        0.45882353]
  [0.38039216 0.40784314 0.4627451 ]
  ...
  [0.21568627 0.21568627 0.21568627]
  [0.20392157 0.22352941 0.21960784]
  [0.21568627 0.23529412 0.23137255]]

 [[0.35686275 0.38431373 0.45098039]
  [0.36470588 0.39215686 0.45882353]
  [0.36078431 0.38823529 0.44705882]
  ...
  [0.21568627 0.21568627 0.21568627]
  [0.22352941 0.24313725 0.23921569]
  [0.23921569 0.25882353 0.25490196]]]",0
2024-09-10 12:13:52,0.1570500135421753,0.1050000041723251,9.829950332641602,"[[[0.36470588 0.42352941 0.45882353]
  [0.36470588 0.42352941 0.45882353]
  [0.36078431 0.41960784 0.45490196]
  ...
  [0.43529412 0.46666667 0.42745098]
  [0.43529412 0.46666667 0.42745098]
  [0.43529412 0.46666667 0.42745098]]

 [[0.36470588 0.42352941 0.45882353]
  [0.36470588 0.42352941 0.45882353]
  [0.36470588 0.42352941 0.45882353]
  ...
  [0.45098039 0.48235294 0.44313725]
  [0.45098039 0.48235294 0.44313725]
  [0.43529412 0.46666667 0.42745098]]

 [[0.36470588 0.42352941 0.45882353]
  [0.36470588 0.42352941 0.45882353]
  [0.36470588 0.42352941 0.45882353]
  ...
  [0.44313725 0.4745098  0.43529412]
  [0.43529412 0.46666667 0.42745098]
  [0.43529412 0.46666667 0.42745098]]

 ...

 [[0.49019608 0.49411765 0.57647059]
  [0.49803922 0.49803922 0.59215686]
  [0.50588235 0.50980392 0.59215686]
  ...
  [0.18431373 0.17254902 0.15686275]
  [0.16470588 0.15686275 0.1254902 ]
  [0.17254902 0.16470588 0.13333333]]

 [[0.40784314 0.40784314 0.45882353]
  [0.40784314 0.40392157 0.46666667]
  [0.41568627 0.40784314 0.48235294]
  ...
  [0.23137255 0.21960784 0.20392157]
  [0.21960784 0.21176471 0.18039216]
  [0.21960784 0.21176471 0.18039216]]

 [[0.36862745 0.35294118 0.4       ]
  [0.36078431 0.34117647 0.4       ]
  [0.37254902 0.35294118 0.40392157]
  ...
  [0.21176471 0.2        0.18431373]
  [0.23529412 0.22745098 0.19607843]
  [0.25882353 0.25098039 0.21960784]]]",0
2024-09-10 12:13:53,0.1570500135421753,0.1050000041723251,9.829950332641602,"[[[0.38823529 0.44705882 0.48235294]
  [0.37647059 0.44705882 0.48235294]
  [0.38039216 0.45490196 0.48627451]
  ...
  [0.44705882 0.49019608 0.45098039]
  [0.44313725 0.48627451 0.44705882]
  [0.44705882 0.49019608 0.45098039]]

 [[0.37647059 0.45098039 0.48235294]
  [0.36862745 0.45098039 0.48235294]
  [0.37647059 0.45098039 0.48235294]
  ...
  [0.45490196 0.49803922 0.45882353]
  [0.44705882 0.49019608 0.45098039]
  [0.44705882 0.49019608 0.45098039]]

 [[0.37647059 0.45098039 0.48235294]
  [0.37647059 0.45098039 0.48235294]
  [0.37647059 0.45098039 0.48235294]
  ...
  [0.45490196 0.49803922 0.45882353]
  [0.44705882 0.49019608 0.45098039]
  [0.45098039 0.49411765 0.45490196]]

 ...

 [[0.40784314 0.41960784 0.47843137]
  [0.42745098 0.43921569 0.49803922]
  [0.44705882 0.45882353 0.51764706]
  ...
  [0.18431373 0.18823529 0.17254902]
  [0.18039216 0.18431373 0.16862745]
  [0.16470588 0.16862745 0.15294118]]

 [[0.4        0.40784314 0.4745098 ]
  [0.40784314 0.41568627 0.48627451]
  [0.43529412 0.44313725 0.50980392]
  ...
  [0.21960784 0.21960784 0.21960784]
  [0.22352941 0.22352941 0.22352941]
  [0.23137255 0.23137255 0.23137255]]

 [[0.38823529 0.39607843 0.4627451 ]
  [0.40392157 0.41176471 0.48235294]
  [0.41960784 0.43137255 0.49411765]
  ...
  [0.23921569 0.23921569 0.23921569]
  [0.23921569 0.23921569 0.23921569]
  [0.25490196 0.25490196 0.25490196]]]",0
2024-09-10 12:13:54,0.1570500135421753,0.1050000041723251,9.829950332641602,"[[[0.4        0.4627451  0.48627451]
  [0.4        0.4627451  0.48627451]
  [0.39215686 0.45490196 0.47843137]
  ...
  [0.48627451 0.50196078 0.45490196]
  [0.48627451 0.50196078 0.45490196]
  [0.48627451 0.50196078 0.45490196]]

 [[0.4        0.4627451  0.48627451]
  [0.4        0.4627451  0.48627451]
  [0.4        0.4627451  0.48627451]
  ...
  [0.48627451 0.50196078 0.45490196]
  [0.48627451 0.50196078 0.45490196]
  [0.48627451 0.50196078 0.45490196]]

 [[0.4        0.4627451  0.48627451]
  [0.4        0.4627451  0.48627451]
  [0.4        0.4627451  0.48627451]
  ...
  [0.48627451 0.50196078 0.45490196]
  [0.48627451 0.50196078 0.45490196]
  [0.48627451 0.50196078 0.45490196]]

 ...

 [[0.4745098  0.48627451 0.54117647]
  [0.43921569 0.45490196 0.49803922]
  [0.38039216 0.39607843 0.43921569]
  ...
  [0.21960784 0.20784314 0.19215686]
  [0.20784314 0.19607843 0.18039216]
  [0.2        0.18823529 0.17254902]]

 [[0.48627451 0.49411765 0.56470588]
  [0.45882353 0.48627451 0.55294118]
  [0.43137255 0.4627451  0.51764706]
  ...
  [0.27843137 0.2627451  0.25098039]
  [0.26666667 0.25490196 0.23921569]
  [0.25882353 0.24705882 0.23137255]]

 [[0.49803922 0.50588235 0.57254902]
  [0.47843137 0.50588235 0.56862745]
  [0.45882353 0.48627451 0.54509804]
  ...
  [0.26666667 0.25490196 0.23921569]
  [0.27843137 0.28235294 0.26666667]
  [0.29019608 0.29411765 0.27843137]]]",0
2024-09-10 12:13:55,0.1570500135421753,0.1050000041723251,9.829950332641602,"[[[0.4        0.4627451  0.48627451]
  [0.39607843 0.45882353 0.48235294]
  [0.39607843 0.45882353 0.48235294]
  ...
  [0.49019608 0.50196078 0.45490196]
  [0.49411765 0.49411765 0.44705882]
  [0.49803922 0.49803922 0.45098039]]

 [[0.4        0.4627451  0.48627451]
  [0.4        0.4627451  0.48627451]
  [0.4        0.4627451  0.48627451]
  ...
  [0.48235294 0.50588235 0.45490196]
  [0.48627451 0.50196078 0.45490196]
  [0.48627451 0.50196078 0.45490196]]

 [[0.4        0.4627451  0.48627451]
  [0.4        0.4627451  0.48627451]
  [0.4        0.4627451  0.48627451]
  ...
  [0.48627451 0.50196078 0.45490196]
  [0.48627451 0.50196078 0.45490196]
  [0.48627451 0.50196078 0.45490196]]

 ...

 [[0.47058824 0.48235294 0.5372549 ]
  [0.43529412 0.45098039 0.49411765]
  [0.38431373 0.4        0.44313725]
  ...
  [0.21568627 0.20392157 0.18823529]
  [0.2        0.18823529 0.17254902]
  [0.2        0.18823529 0.17254902]]

 [[0.48627451 0.49411765 0.56078431]
  [0.46666667 0.49411765 0.56078431]
  [0.43137255 0.4627451  0.51372549]
  ...
  [0.2745098  0.2627451  0.24705882]
  [0.26666667 0.25490196 0.23921569]
  [0.25882353 0.24705882 0.23137255]]

 [[0.49803922 0.51372549 0.56078431]
  [0.47843137 0.50588235 0.57254902]
  [0.45490196 0.48627451 0.54117647]
  ...
  [0.26666667 0.25490196 0.23921569]
  [0.29803922 0.28627451 0.27058824]
  [0.30196078 0.29019608 0.2745098 ]]]",0
2024-09-10 12:13:56,0.1570500135421753,0.1050000041723251,9.829950332641602,"[[[0.39607843 0.4627451  0.51372549]
  [0.39215686 0.45882353 0.50980392]
  [0.39215686 0.45882353 0.50980392]
  ...
  [0.4627451  0.49803922 0.4745098 ]
  [0.4745098  0.50588235 0.46666667]
  [0.4745098  0.50588235 0.46666667]]

 [[0.4        0.46666667 0.51764706]
  [0.39607843 0.4627451  0.51372549]
  [0.39215686 0.45882353 0.50980392]
  ...
  [0.45882353 0.49803922 0.48235294]
  [0.4627451  0.50196078 0.47843137]
  [0.4627451  0.50196078 0.47843137]]

 [[0.40784314 0.4745098  0.5254902 ]
  [0.39215686 0.45882353 0.50980392]
  [0.4        0.46666667 0.51764706]
  ...
  [0.46666667 0.50588235 0.48235294]
  [0.4627451  0.50196078 0.47843137]
  [0.45490196 0.49411765 0.47058824]]

 ...

 [[0.81568627 0.81960784 0.81176471]
  [0.81568627 0.81960784 0.80392157]
  [0.81568627 0.81960784 0.80392157]
  ...
  [0.21176471 0.21176471 0.21176471]
  [0.19607843 0.19607843 0.19607843]
  [0.18431373 0.18431373 0.18431373]]

 [[0.81568627 0.81568627 0.81568627]
  [0.81568627 0.81568627 0.81568627]
  [0.81568627 0.81176471 0.82352941]
  ...
  [0.23137255 0.23137255 0.23137255]
  [0.21960784 0.21960784 0.22352941]
  [0.22745098 0.22745098 0.22745098]]

 [[0.81568627 0.82352941 0.79607843]
  [0.81960784 0.81568627 0.81960784]
  [0.81568627 0.81568627 0.81960784]
  ...
  [0.21176471 0.21568627 0.2       ]
  [0.23137255 0.23137255 0.22745098]
  [0.25098039 0.25098039 0.25098039]]]",0
2024-09-10 12:13:57,0.1570500135421753,0.1050000041723251,9.829950332641602,"[[[0.4        0.46666667 0.51764706]
  [0.4        0.46666667 0.51764706]
  [0.39215686 0.45882353 0.50980392]
  ...
  [0.4627451  0.49803922 0.47843137]
  [0.46666667 0.49803922 0.49411765]
  [0.45882353 0.49019608 0.48627451]]

 [[0.39215686 0.45882353 0.50980392]
  [0.39215686 0.45882353 0.50980392]
  [0.4        0.46666667 0.51764706]
  ...
  [0.46666667 0.50588235 0.47843137]
  [0.4627451  0.50196078 0.47843137]
  [0.45882353 0.49803922 0.4745098 ]]

 [[0.38431373 0.45098039 0.50196078]
  [0.4        0.46666667 0.51764706]
  [0.39215686 0.45882353 0.50980392]
  ...
  [0.4627451  0.50196078 0.47843137]
  [0.4627451  0.50196078 0.47843137]
  [0.4627451  0.50196078 0.47843137]]

 ...

 [[0.81568627 0.81568627 0.81568627]
  [0.80784314 0.81568627 0.81568627]
  [0.81568627 0.81568627 0.81568627]
  ...
  [0.20784314 0.20784314 0.20784314]
  [0.21176471 0.21176471 0.21176471]
  [0.2        0.2        0.2       ]]

 [[0.83137255 0.81176471 0.81568627]
  [0.81960784 0.81568627 0.81568627]
  [0.80784314 0.81568627 0.81568627]
  ...
  [0.23137255 0.23137255 0.23137255]
  [0.22745098 0.22745098 0.22745098]
  [0.21960784 0.21960784 0.21960784]]

 [[0.81568627 0.82352941 0.79607843]
  [0.81568627 0.81960784 0.80784314]
  [0.81568627 0.81568627 0.8       ]
  ...
  [0.21176471 0.21568627 0.2       ]
  [0.23137255 0.23529412 0.22745098]
  [0.23529412 0.23529412 0.23529412]]]",0
2024-09-10 12:13:59,0.1570500135421753,0.1050000041723251,9.829950332641602,"[[[0.39607843 0.4627451  0.51372549]
  [0.40392157 0.47058824 0.52156863]
  [0.39215686 0.45882353 0.50980392]
  ...
  [0.4627451  0.50196078 0.47843137]
  [0.4627451  0.50196078 0.47843137]
  [0.45490196 0.49411765 0.47058824]]

 [[0.40392157 0.47058824 0.52156863]
  [0.4        0.46666667 0.51764706]
  [0.4        0.46666667 0.51764706]
  ...
  [0.46666667 0.50588235 0.48235294]
  [0.4627451  0.50196078 0.47843137]
  [0.45882353 0.49803922 0.4745098 ]]

 [[0.4        0.46666667 0.51764706]
  [0.39215686 0.45882353 0.50980392]
  [0.39215686 0.45882353 0.50980392]
  ...
  [0.4627451  0.50196078 0.47843137]
  [0.4627451  0.50196078 0.47843137]
  [0.4627451  0.50196078 0.47843137]]

 ...

 [[0.82352941 0.81960784 0.80392157]
  [0.81568627 0.81960784 0.80392157]
  [0.81568627 0.81960784 0.80392157]
  ...
  [0.20784314 0.20784314 0.20784314]
  [0.20392157 0.20392157 0.20392157]
  [0.18039216 0.18039216 0.18039216]]

 [[0.81960784 0.81960784 0.79607843]
  [0.81568627 0.81960784 0.81176471]
  [0.81568627 0.81960784 0.80392157]
  ...
  [0.22745098 0.21960784 0.21960784]
  [0.22745098 0.22745098 0.22745098]
  [0.23137255 0.23137255 0.23137255]]

 [[0.81568627 0.82352941 0.8       ]
  [0.81568627 0.82352941 0.80784314]
  [0.81568627 0.82352941 0.80392157]
  ...
  [0.23529412 0.21568627 0.21960784]
  [0.24313725 0.23529412 0.23529412]
  [0.23529412 0.23529412 0.23529412]]]",0
2024-09-10 12:14:00,0.1570500135421753,0.1050000041723251,9.829950332641602,"[[[0.4        0.46666667 0.51764706]
  [0.39215686 0.45882353 0.50980392]
  [0.38823529 0.45490196 0.50588235]
  ...
  [0.4745098  0.49803922 0.47843137]
  [0.4745098  0.49803922 0.47843137]
  [0.46666667 0.49019608 0.47058824]]

 [[0.4        0.46666667 0.51764706]
  [0.39215686 0.45882353 0.50980392]
  [0.39215686 0.45882353 0.50980392]
  ...
  [0.4745098  0.49803922 0.47843137]
  [0.48235294 0.50588235 0.48627451]
  [0.4745098  0.49803922 0.47843137]]

 [[0.4        0.46666667 0.51764706]
  [0.4        0.46666667 0.51764706]
  [0.4        0.46666667 0.51764706]
  ...
  [0.4745098  0.49803922 0.47843137]
  [0.46666667 0.49019608 0.47058824]
  [0.46666667 0.49019608 0.47058824]]

 ...

 [[0.82352941 0.81960784 0.80392157]
  [0.81568627 0.81960784 0.80392157]
  [0.81568627 0.81960784 0.80392157]
  ...
  [0.21568627 0.21568627 0.21568627]
  [0.20784314 0.2        0.2       ]
  [0.2        0.18039216 0.18431373]]

 [[0.82745098 0.81568627 0.79215686]
  [0.81568627 0.81960784 0.81176471]
  [0.81568627 0.81960784 0.80392157]
  ...
  [0.23137255 0.23137255 0.22745098]
  [0.22745098 0.21960784 0.21960784]
  [0.23921569 0.21960784 0.22352941]]

 [[0.82745098 0.81568627 0.79215686]
  [0.81568627 0.82352941 0.80392157]
  [0.81568627 0.82352941 0.80392157]
  ...
  [0.22745098 0.21568627 0.2       ]
  [0.24313725 0.22745098 0.22352941]
  [0.25490196 0.23529412 0.23921569]]]",0
2024-09-10 12:14:01,0.1570500135421753,0.1050000041723251,9.829950332641602,"[[[0.4        0.46666667 0.51764706]
  [0.39215686 0.45882353 0.50980392]
  [0.38823529 0.45490196 0.50588235]
  ...
  [0.46666667 0.50588235 0.48235294]
  [0.46666667 0.50588235 0.48235294]
  [0.4627451  0.50196078 0.47843137]]

 [[0.39607843 0.45882353 0.50980392]
  [0.39215686 0.45882353 0.50980392]
  [0.39215686 0.45882353 0.50980392]
  ...
  [0.4627451  0.49019608 0.47058824]
  [0.47058824 0.49803922 0.47843137]
  [0.4745098  0.49803922 0.47843137]]

 [[0.39607843 0.45882353 0.50980392]
  [0.39215686 0.45882353 0.50980392]
  [0.39215686 0.45882353 0.50980392]
  ...
  [0.4745098  0.49803922 0.47843137]
  [0.46666667 0.49019608 0.47058824]
  [0.46666667 0.49019608 0.47058824]]

 ...

 [[0.81568627 0.81568627 0.81568627]
  [0.80784314 0.81568627 0.81568627]
  [0.81568627 0.81568627 0.81568627]
  ...
  [0.21568627 0.19607843 0.2       ]
  [0.2        0.18039216 0.18431373]
  [0.20392157 0.18431373 0.18823529]]

 [[0.83137255 0.81568627 0.80784314]
  [0.81568627 0.81176471 0.82352941]
  [0.81568627 0.81568627 0.81568627]
  ...
  [0.23137255 0.21176471 0.21960784]
  [0.23921569 0.21960784 0.22352941]
  [0.23921569 0.21960784 0.22352941]]

 [[0.82745098 0.81568627 0.79607843]
  [0.81568627 0.82352941 0.80392157]
  [0.81568627 0.82352941 0.80392157]
  ...
  [0.23921569 0.21960784 0.22352941]
  [0.22352941 0.21176471 0.19607843]
  [0.23529412 0.22352941 0.20784314]]]",0
2024-09-10 12:14:02,0.1570500135421753,0.1050000041723251,9.829950332641602,"[[[0.40392157 0.45490196 0.50980392]
  [0.40784314 0.45882353 0.51372549]
  [0.40784314 0.45882353 0.51372549]
  ...
  [0.4745098  0.49803922 0.47843137]
  [0.4745098  0.49803922 0.47843137]
  [0.47058824 0.49411765 0.4745098 ]]

 [[0.4        0.46666667 0.51764706]
  [0.39215686 0.45882353 0.50980392]
  [0.39215686 0.45882353 0.50980392]
  ...
  [0.47843137 0.50196078 0.48235294]
  [0.4745098  0.49803922 0.47843137]
  [0.46666667 0.49019608 0.47058824]]

 [[0.39215686 0.45882353 0.50980392]
  [0.39215686 0.45882353 0.50980392]
  [0.39215686 0.45882353 0.50980392]
  ...
  [0.47843137 0.50196078 0.48235294]
  [0.4745098  0.49803922 0.47843137]
  [0.46666667 0.49019608 0.47058824]]

 ...

 [[0.81568627 0.81568627 0.81568627]
  [0.81568627 0.81568627 0.81568627]
  [0.81568627 0.81568627 0.81568627]
  ...
  [0.19607843 0.2        0.18431373]
  [0.2        0.18823529 0.17254902]
  [0.19215686 0.18039216 0.16470588]]

 [[0.83137255 0.81176471 0.81568627]
  [0.83137255 0.81176471 0.81568627]
  [0.83137255 0.80784314 0.82352941]
  ...
  [0.22352941 0.22745098 0.21176471]
  [0.22745098 0.22352941 0.20784314]
  [0.23137255 0.21960784 0.20392157]]

 [[0.82745098 0.81568627 0.79607843]
  [0.82745098 0.80784314 0.81960784]
  [0.82745098 0.80784314 0.81568627]
  ...
  [0.21960784 0.20784314 0.19215686]
  [0.23921569 0.22745098 0.21176471]
  [0.23921569 0.22745098 0.21176471]]]",0
2024-09-10 12:14:03,0.1570500135421753,0.1050000041723251,9.829950332641602,"[[[0.39607843 0.4627451  0.51372549]
  [0.4        0.4745098  0.50588235]
  [0.38823529 0.4627451  0.49411765]
  ...
  [0.45882353 0.49803922 0.4745098 ]
  [0.4627451  0.50196078 0.47843137]
  [0.45490196 0.49411765 0.47058824]]

 [[0.39215686 0.46666667 0.49803922]
  [0.40784314 0.4745098  0.5254902 ]
  [0.39215686 0.45490196 0.51764706]
  ...
  [0.4627451  0.50196078 0.47843137]
  [0.45490196 0.49411765 0.47058824]
  [0.45490196 0.49411765 0.47058824]]

 [[0.39215686 0.45882353 0.50980392]
  [0.40392157 0.46666667 0.5254902 ]
  [0.39215686 0.45882353 0.50980392]
  ...
  [0.4627451  0.50196078 0.47843137]
  [0.47058824 0.50980392 0.48627451]
  [0.45098039 0.49019608 0.46666667]]

 ...

 [[0.81568627 0.81960784 0.81176471]
  [0.81568627 0.81960784 0.80392157]
  [0.81568627 0.81960784 0.80392157]
  ...
  [0.20392157 0.20392157 0.20392157]
  [0.19607843 0.2        0.18431373]
  [0.17647059 0.18039216 0.16470588]]

 [[0.81568627 0.81960784 0.80784314]
  [0.81568627 0.81960784 0.80392157]
  [0.81568627 0.81568627 0.81568627]
  ...
  [0.22745098 0.22745098 0.22745098]
  [0.21568627 0.21568627 0.21568627]
  [0.22745098 0.22745098 0.22745098]]

 [[0.82745098 0.81568627 0.8       ]
  [0.82745098 0.80784314 0.81176471]
  [0.82745098 0.80784314 0.81568627]
  ...
  [0.20392157 0.20392157 0.20392157]
  [0.22745098 0.22745098 0.22745098]
  [0.23529412 0.23529412 0.23529412]]]",0
2024-09-10 12:14:04,0.1570500135421753,0.1050000041723251,9.829950332641602,"[[[0.36470588 0.42352941 0.45882353]
  [0.36470588 0.42352941 0.45882353]
  [0.36470588 0.42352941 0.45882353]
  ...
  [0.43529412 0.4627451  0.42352941]
  [0.45490196 0.46666667 0.43137255]
  [0.45490196 0.46666667 0.43137255]]

 [[0.36470588 0.42352941 0.45882353]
  [0.36470588 0.42352941 0.45882353]
  [0.36470588 0.42352941 0.45882353]
  ...
  [0.43921569 0.4745098  0.43529412]
  [0.44313725 0.4745098  0.43529412]
  [0.43529412 0.46666667 0.42745098]]

 [[0.36470588 0.42352941 0.45882353]
  [0.36470588 0.42352941 0.45882353]
  [0.36470588 0.42352941 0.45882353]
  ...
  [0.44313725 0.4745098  0.43529412]
  [0.43529412 0.46666667 0.42745098]
  [0.43529412 0.46666667 0.42745098]]

 ...

 [[0.47058824 0.48235294 0.54117647]
  [0.48235294 0.49411765 0.55294118]
  [0.50196078 0.51372549 0.57254902]
  ...
  [0.17254902 0.16078431 0.14509804]
  [0.17647059 0.16470588 0.14901961]
  [0.18039216 0.16862745 0.15294118]]

 [[0.39215686 0.39215686 0.44705882]
  [0.4        0.4        0.45490196]
  [0.40392157 0.41176471 0.45098039]
  ...
  [0.22352941 0.21176471 0.19607843]
  [0.22745098 0.21568627 0.2       ]
  [0.21960784 0.20784314 0.19215686]]

 [[0.36862745 0.33333333 0.37254902]
  [0.36470588 0.3254902  0.38823529]
  [0.38823529 0.34901961 0.4       ]
  ...
  [0.21960784 0.20784314 0.19215686]
  [0.24313725 0.23137255 0.21568627]
  [0.25490196 0.24313725 0.22745098]]]",0
2024-09-10 12:14:05,0.1570500135421753,0.1050000041723251,9.829950332641602,"[[[0.4        0.45098039 0.50588235]
  [0.40784314 0.45882353 0.51372549]
  [0.40784314 0.45882353 0.51372549]
  ...
  [0.4627451  0.50196078 0.47843137]
  [0.4627451  0.49019608 0.47058824]
  [0.47058824 0.49411765 0.4745098 ]]

 [[0.39215686 0.45882353 0.50980392]
  [0.39215686 0.45882353 0.50980392]
  [0.39215686 0.45882353 0.50980392]
  ...
  [0.4627451  0.50196078 0.47843137]
  [0.47058824 0.49803922 0.47843137]
  [0.46666667 0.49019608 0.47058824]]

 [[0.39215686 0.45882353 0.50980392]
  [0.40392157 0.47058824 0.52156863]
  [0.39215686 0.45882353 0.50980392]
  ...
  [0.44705882 0.49019608 0.46666667]
  [0.45882353 0.49803922 0.4745098 ]
  [0.4627451  0.50196078 0.47843137]]

 ...

 [[0.81568627 0.81960784 0.80392157]
  [0.81568627 0.81960784 0.80392157]
  [0.81568627 0.81960784 0.80392157]
  ...
  [0.19607843 0.19607843 0.19607843]
  [0.2        0.19215686 0.19215686]
  [0.2        0.18039216 0.18431373]]

 [[0.82745098 0.81568627 0.8       ]
  [0.83137255 0.81176471 0.81568627]
  [0.83137255 0.81176471 0.81568627]
  ...
  [0.24705882 0.22745098 0.23137255]
  [0.23921569 0.21960784 0.22352941]
  [0.23529412 0.21568627 0.21960784]]

 [[0.82745098 0.81568627 0.79215686]
  [0.82745098 0.81568627 0.80392157]
  [0.82745098 0.81176471 0.80392157]
  ...
  [0.23137255 0.21176471 0.21568627]
  [0.24705882 0.22745098 0.23137255]
  [0.25098039 0.23137255 0.23529412]]]",0
2024-09-10 12:14:06,0.1570500135421753,0.1050000041723251,9.829950332641602,"[[[0.41176471 0.4627451  0.51764706]
  [0.40392157 0.45490196 0.50980392]
  [0.40392157 0.45490196 0.50980392]
  ...
  [0.47058824 0.49411765 0.4745098 ]
  [0.4745098  0.49803922 0.47843137]
  [0.47058824 0.49411765 0.4745098 ]]

 [[0.4        0.4627451  0.51372549]
  [0.38823529 0.45490196 0.50588235]
  [0.4        0.46666667 0.51764706]
  ...
  [0.4745098  0.49803922 0.47843137]
  [0.4745098  0.49803922 0.47843137]
  [0.4745098  0.49803922 0.47843137]]

 [[0.40392157 0.46666667 0.51764706]
  [0.4        0.46666667 0.51764706]
  [0.39215686 0.45882353 0.50980392]
  ...
  [0.47058824 0.49411765 0.4745098 ]
  [0.46666667 0.49019608 0.47058824]
  [0.46666667 0.49019608 0.47058824]]

 ...

 [[0.81568627 0.81960784 0.81176471]
  [0.81568627 0.81960784 0.80392157]
  [0.81568627 0.81960784 0.80392157]
  ...
  [0.21568627 0.19607843 0.2       ]
  [0.20392157 0.19215686 0.17647059]
  [0.19607843 0.18431373 0.16862745]]

 [[0.81568627 0.81960784 0.80784314]
  [0.81568627 0.81176471 0.81960784]
  [0.81568627 0.81568627 0.81568627]
  ...
  [0.23529412 0.21568627 0.21960784]
  [0.24313725 0.22352941 0.22745098]
  [0.24705882 0.22745098 0.23137255]]

 [[0.81568627 0.82352941 0.8       ]
  [0.81568627 0.82352941 0.80784314]
  [0.81568627 0.82352941 0.8       ]
  ...
  [0.22745098 0.20784314 0.21176471]
  [0.24705882 0.22745098 0.23137255]
  [0.25098039 0.23137255 0.23529412]]]",0
2024-09-10 12:14:07,0.1570500135421753,0.1050000041723251,9.829950332641602,"[[[0.40784314 0.45882353 0.51372549]
  [0.40784314 0.45882353 0.51372549]
  [0.40784314 0.45882353 0.51372549]
  ...
  [0.4745098  0.49803922 0.4745098 ]
  [0.47058824 0.50196078 0.4627451 ]
  [0.4745098  0.50588235 0.46666667]]

 [[0.39215686 0.45882353 0.50980392]
  [0.39215686 0.45882353 0.50980392]
  [0.39215686 0.45882353 0.50980392]
  ...
  [0.46666667 0.49019608 0.4745098 ]
  [0.4745098  0.49803922 0.47843137]
  [0.4745098  0.49803922 0.47843137]]

 [[0.4        0.4745098  0.50588235]
  [0.39215686 0.46666667 0.49803922]
  [0.40392157 0.47843137 0.50980392]
  ...
  [0.4627451  0.50196078 0.47843137]
  [0.4627451  0.50196078 0.47843137]
  [0.4627451  0.50196078 0.47843137]]

 ...

 [[0.81568627 0.81960784 0.80392157]
  [0.81568627 0.82352941 0.8       ]
  [0.81568627 0.81960784 0.80392157]
  ...
  [0.20392157 0.20784314 0.20392157]
  [0.19215686 0.19607843 0.18039216]
  [0.17254902 0.17647059 0.16078431]]

 [[0.83137255 0.81568627 0.80784314]
  [0.82745098 0.81568627 0.8       ]
  [0.82745098 0.81176471 0.80392157]
  ...
  [0.24313725 0.22352941 0.22745098]
  [0.22352941 0.22352941 0.22352941]
  [0.23137255 0.23137255 0.23137255]]

 [[0.82745098 0.81568627 0.79607843]
  [0.82745098 0.81568627 0.80392157]
  [0.82745098 0.81568627 0.8       ]
  ...
  [0.22745098 0.20784314 0.21176471]
  [0.23137255 0.23137255 0.23137255]
  [0.23529412 0.23529412 0.23529412]]]",0
2024-09-10 12:14:08,0.1570500135421753,0.1050000041723251,9.829950332641602,"[[[0.41568627 0.46666667 0.52156863]
  [0.40784314 0.45882353 0.51372549]
  [0.41568627 0.46666667 0.52156863]
  ...
  [0.45882353 0.49803922 0.4745098 ]
  [0.45882353 0.49803922 0.4745098 ]
  [0.45882353 0.49803922 0.4745098 ]]

 [[0.4        0.46666667 0.51764706]
  [0.4        0.46666667 0.51764706]
  [0.40392157 0.47058824 0.52156863]
  ...
  [0.4627451  0.50196078 0.47843137]
  [0.4627451  0.50196078 0.47843137]
  [0.45490196 0.49411765 0.47058824]]

 [[0.4        0.46666667 0.51764706]
  [0.4        0.46666667 0.51764706]
  [0.39215686 0.45882353 0.50980392]
  ...
  [0.46666667 0.50588235 0.48235294]
  [0.4627451  0.50196078 0.47843137]
  [0.45490196 0.49411765 0.47058824]]

 ...

 [[0.81568627 0.81960784 0.81176471]
  [0.80784314 0.82352941 0.80392157]
  [0.81568627 0.81960784 0.80392157]
  ...
  [0.21568627 0.19607843 0.2       ]
  [0.21568627 0.19607843 0.2       ]
  [0.2        0.18039216 0.18431373]]

 [[0.82352941 0.81568627 0.81568627]
  [0.81568627 0.81568627 0.81568627]
  [0.81568627 0.81176471 0.82352941]
  ...
  [0.23529412 0.21568627 0.21960784]
  [0.24313725 0.22352941 0.22745098]
  [0.24313725 0.22352941 0.22745098]]

 [[0.81568627 0.81960784 0.79607843]
  [0.81568627 0.81176471 0.82352941]
  [0.81568627 0.81176471 0.81960784]
  ...
  [0.23137255 0.21176471 0.21568627]
  [0.24705882 0.22745098 0.23137255]
  [0.24313725 0.22352941 0.22745098]]]",0
2024-09-10 12:14:09,0.1570500135421753,0.1050000041723251,9.829950332641602,"[[[0.40784314 0.46666667 0.50196078]
  [0.40784314 0.45882353 0.51372549]
  [0.4        0.45098039 0.50588235]
  ...
  [0.4627451  0.50196078 0.47843137]
  [0.47843137 0.50196078 0.48235294]
  [0.4745098  0.49803922 0.47843137]]

 [[0.39215686 0.45882353 0.50980392]
  [0.40392157 0.47058824 0.52156863]
  [0.39215686 0.45882353 0.50980392]
  ...
  [0.4627451  0.50196078 0.47843137]
  [0.4745098  0.49803922 0.47843137]
  [0.4745098  0.49803922 0.47843137]]

 [[0.40392157 0.4745098  0.51764706]
  [0.40392157 0.47058824 0.52156863]
  [0.39215686 0.45882353 0.50980392]
  ...
  [0.47058824 0.50980392 0.48627451]
  [0.45098039 0.49019608 0.46666667]
  [0.45490196 0.49411765 0.47058824]]

 ...

 [[0.81568627 0.81568627 0.81568627]
  [0.81568627 0.81568627 0.81568627]
  [0.81568627 0.81568627 0.81568627]
  ...
  [0.20392157 0.20392157 0.20392157]
  [0.19215686 0.19215686 0.19215686]
  [0.18431373 0.18431373 0.18431373]]

 [[0.81568627 0.81568627 0.81568627]
  [0.81568627 0.81176471 0.81960784]
  [0.81568627 0.81176471 0.81960784]
  ...
  [0.22352941 0.22352941 0.22352941]
  [0.22352941 0.22352941 0.22352941]
  [0.22745098 0.22745098 0.22745098]]

 [[0.81568627 0.81568627 0.81176471]
  [0.81568627 0.81176471 0.82352941]
  [0.81568627 0.81176471 0.81960784]
  ...
  [0.21176471 0.21176471 0.21176471]
  [0.21960784 0.21960784 0.21960784]
  [0.22745098 0.22745098 0.22745098]]]",0
2024-09-10 12:14:10,0.1570500135421753,0.1050000041723251,9.829950332641602,"[[[0.38823529 0.4627451  0.49411765]
  [0.39607843 0.47058824 0.50196078]
  [0.39607843 0.47058824 0.50196078]
  ...
  [0.46666667 0.49019608 0.47058824]
  [0.47058824 0.49411765 0.4745098 ]
  [0.4745098  0.49803922 0.47843137]]

 [[0.4        0.46666667 0.51764706]
  [0.39215686 0.45882353 0.50980392]
  [0.39215686 0.45882353 0.50980392]
  ...
  [0.4627451  0.50196078 0.47843137]
  [0.4745098  0.49803922 0.47843137]
  [0.4745098  0.49803922 0.47843137]]

 [[0.4        0.46666667 0.51764706]
  [0.38431373 0.45098039 0.50196078]
  [0.4        0.46666667 0.51764706]
  ...
  [0.45490196 0.49803922 0.4745098 ]
  [0.45882353 0.49803922 0.4745098 ]
  [0.45882353 0.49803922 0.4745098 ]]

 ...

 [[0.81568627 0.81960784 0.81176471]
  [0.81568627 0.81960784 0.80392157]
  [0.81176471 0.81568627 0.8       ]
  ...
  [0.21176471 0.21176471 0.21176471]
  [0.18823529 0.18823529 0.18823529]
  [0.18039216 0.18039216 0.18039216]]

 [[0.81568627 0.81568627 0.81568627]
  [0.81568627 0.81568627 0.81568627]
  [0.81568627 0.81960784 0.80392157]
  ...
  [0.23137255 0.23137255 0.23137255]
  [0.22352941 0.22352941 0.22352941]
  [0.22352941 0.22352941 0.22352941]]

 [[0.81568627 0.81568627 0.81176471]
  [0.81568627 0.81176471 0.81568627]
  [0.81568627 0.81176471 0.81960784]
  ...
  [0.21568627 0.21568627 0.21568627]
  [0.23137255 0.23137255 0.23137255]
  [0.23921569 0.23921569 0.23921569]]]",0
2024-09-10 12:14:11,0.1570500135421753,0.1050000041723251,9.829950332641602,"[[[0.40392157 0.45490196 0.50980392]
  [0.38431373 0.45098039 0.50196078]
  [0.39607843 0.4627451  0.51372549]
  ...
  [0.45882353 0.49803922 0.4745098 ]
  [0.45490196 0.49411765 0.47058824]
  [0.45490196 0.49411765 0.47058824]]

 [[0.40784314 0.4745098  0.5254902 ]
  [0.38431373 0.45882353 0.50980392]
  [0.39215686 0.45882353 0.50980392]
  ...
  [0.4627451  0.50196078 0.47843137]
  [0.4627451  0.50196078 0.47843137]
  [0.4627451  0.50196078 0.47843137]]

 [[0.4        0.46666667 0.51764706]
  [0.39607843 0.4627451  0.51372549]
  [0.39607843 0.4627451  0.51372549]
  ...
  [0.4627451  0.50196078 0.47843137]
  [0.45490196 0.49411765 0.47058824]
  [0.4627451  0.50196078 0.47843137]]

 ...

 [[0.81568627 0.81568627 0.81568627]
  [0.81568627 0.81568627 0.81568627]
  [0.81568627 0.81568627 0.81568627]
  ...
  [0.22352941 0.20392157 0.20784314]
  [0.2        0.18039216 0.18431373]
  [0.20392157 0.18431373 0.18823529]]

 [[0.81568627 0.81176471 0.82352941]
  [0.81568627 0.81960784 0.81176471]
  [0.81568627 0.81568627 0.81568627]
  ...
  [0.23921569 0.21960784 0.21960784]
  [0.23529412 0.21568627 0.21960784]
  [0.24313725 0.22352941 0.22745098]]

 [[0.82745098 0.80784314 0.81176471]
  [0.81568627 0.81960784 0.80392157]
  [0.81568627 0.82352941 0.8       ]
  ...
  [0.22352941 0.21176471 0.19607843]
  [0.24313725 0.22745098 0.22352941]
  [0.24705882 0.22745098 0.23137255]]]",0
2024-09-10 12:14:12,0.1570500135421753,0.1050000041723251,9.829950332641602,"[[[0.41568627 0.46666667 0.52156863]
  [0.38823529 0.45490196 0.50588235]
  [0.39215686 0.45882353 0.50980392]
  ...
  [0.47843137 0.50196078 0.48627451]
  [0.4745098  0.49411765 0.49019608]
  [0.47058824 0.49019608 0.48627451]]

 [[0.39215686 0.45882353 0.50980392]
  [0.38431373 0.45882353 0.50980392]
  [0.39215686 0.45882353 0.50980392]
  ...
  [0.47058824 0.49803922 0.4745098 ]
  [0.4745098  0.49803922 0.47843137]
  [0.4745098  0.49803922 0.47843137]]

 [[0.4        0.46666667 0.51764706]
  [0.39215686 0.45882353 0.50980392]
  [0.39215686 0.45882353 0.50980392]
  ...
  [0.45490196 0.49411765 0.47058824]
  [0.45490196 0.49411765 0.47058824]
  [0.45490196 0.49411765 0.47058824]]

 ...

 [[0.81568627 0.81568627 0.81568627]
  [0.80784314 0.80784314 0.80784314]
  [0.81568627 0.81568627 0.81568627]
  ...
  [0.22352941 0.20392157 0.20784314]
  [0.21568627 0.19607843 0.2       ]
  [0.19215686 0.17254902 0.17647059]]

 [[0.81568627 0.81176471 0.81960784]
  [0.80784314 0.81960784 0.81176471]
  [0.81568627 0.81568627 0.81568627]
  ...
  [0.22352941 0.22352941 0.22352941]
  [0.23137255 0.22352941 0.22352941]
  [0.24313725 0.22352941 0.22745098]]

 [[0.82745098 0.81568627 0.79215686]
  [0.81568627 0.81960784 0.81176471]
  [0.81568627 0.81960784 0.80392157]
  ...
  [0.22745098 0.20784314 0.21176471]
  [0.24705882 0.22745098 0.23137255]
  [0.24313725 0.22352941 0.22745098]]]",0
2024-09-10 12:14:13,0.1570500135421753,0.1050000041723251,9.829950332641602,"[[[0.4        0.46666667 0.51764706]
  [0.38823529 0.45490196 0.50588235]
  [0.39215686 0.45882353 0.50980392]
  ...
  [0.4745098  0.49803922 0.47843137]
  [0.4745098  0.50588235 0.46666667]
  [0.4745098  0.50588235 0.46666667]]

 [[0.4        0.46666667 0.51764706]
  [0.39215686 0.45882353 0.50980392]
  [0.39215686 0.45882353 0.50980392]
  ...
  [0.4627451  0.49803922 0.48235294]
  [0.4627451  0.50196078 0.47843137]
  [0.4627451  0.50196078 0.47843137]]

 [[0.39215686 0.4627451  0.50588235]
  [0.38823529 0.45490196 0.50588235]
  [0.39607843 0.4627451  0.51372549]
  ...
  [0.46666667 0.50196078 0.47843137]
  [0.4745098  0.49803922 0.47843137]
  [0.4745098  0.49803922 0.47843137]]

 ...

 [[0.81568627 0.81568627 0.81568627]
  [0.80784314 0.81568627 0.81568627]
  [0.81176471 0.81176471 0.81176471]
  ...
  [0.22352941 0.20392157 0.20784314]
  [0.2        0.18823529 0.17254902]
  [0.19607843 0.18431373 0.16862745]]

 [[0.82352941 0.81568627 0.81568627]
  [0.81568627 0.81568627 0.81568627]
  [0.81568627 0.81176471 0.82352941]
  ...
  [0.24705882 0.22352941 0.22745098]
  [0.23921569 0.21960784 0.22352941]
  [0.24313725 0.22352941 0.22745098]]

 [[0.82745098 0.81568627 0.79607843]
  [0.82745098 0.80784314 0.81960784]
  [0.82745098 0.80784314 0.81568627]
  ...
  [0.23137255 0.21568627 0.21960784]
  [0.22745098 0.22745098 0.22745098]
  [0.23529412 0.23529412 0.23529412]]]",0
2024-09-10 12:14:14,0.1570500135421753,0.1050000041723251,9.829950332641602,"[[[0.39607843 0.4627451  0.51372549]
  [0.39215686 0.45882353 0.50980392]
  [0.38431373 0.45098039 0.50196078]
  ...
  [0.4745098  0.49803922 0.47843137]
  [0.4745098  0.49803922 0.47843137]
  [0.47843137 0.50196078 0.48235294]]

 [[0.38823529 0.45490196 0.50588235]
  [0.40392157 0.47058824 0.52156863]
  [0.39215686 0.45882353 0.50980392]
  ...
  [0.4627451  0.50196078 0.47843137]
  [0.47058824 0.49411765 0.4745098 ]
  [0.47058824 0.49411765 0.4745098 ]]

 [[0.4        0.47058824 0.51372549]
  [0.4        0.46666667 0.51764706]
  [0.40392157 0.47058824 0.52156863]
  ...
  [0.45882353 0.50196078 0.47843137]
  [0.4627451  0.50196078 0.47843137]
  [0.45490196 0.49411765 0.47058824]]

 ...

 [[0.81568627 0.81568627 0.81568627]
  [0.80784314 0.81568627 0.81568627]
  [0.81568627 0.81568627 0.81568627]
  ...
  [0.2        0.2        0.2       ]
  [0.20392157 0.19215686 0.19215686]
  [0.19215686 0.17254902 0.17647059]]

 [[0.83137255 0.81176471 0.81568627]
  [0.81568627 0.81568627 0.81568627]
  [0.81568627 0.81176471 0.82352941]
  ...
  [0.22352941 0.22352941 0.22352941]
  [0.21960784 0.21960784 0.21960784]
  [0.22352941 0.22352941 0.22352941]]

 [[0.82745098 0.81568627 0.79607843]
  [0.81568627 0.81176471 0.82352941]
  [0.81568627 0.81568627 0.81960784]
  ...
  [0.23137255 0.21176471 0.21568627]
  [0.23529412 0.22745098 0.22745098]
  [0.24705882 0.24705882 0.24705882]]]",0
2024-09-10 12:14:15,0.1570500135421753,0.1050000041723251,9.829950332641602,"[[[0.36470588 0.42352941 0.45882353]
  [0.36470588 0.42352941 0.45882353]
  [0.36078431 0.41960784 0.45490196]
  ...
  [0.44313725 0.4745098  0.43529412]
  [0.43921569 0.47058824 0.43137255]
  [0.43529412 0.46666667 0.42745098]]

 [[0.36470588 0.42352941 0.45882353]
  [0.36470588 0.42352941 0.45882353]
  [0.36470588 0.42352941 0.45882353]
  ...
  [0.44313725 0.4745098  0.43529412]
  [0.44313725 0.4745098  0.43529412]
  [0.43921569 0.47058824 0.43137255]]

 [[0.36470588 0.42352941 0.45882353]
  [0.36470588 0.42352941 0.45882353]
  [0.36470588 0.42352941 0.45882353]
  ...
  [0.43529412 0.46666667 0.42745098]
  [0.44313725 0.4745098  0.43529412]
  [0.43529412 0.46666667 0.42745098]]

 ...

 [[0.59607843 0.6        0.68235294]
  [0.61176471 0.61568627 0.69803922]
  [0.63529412 0.63529412 0.72941176]
  ...
  [0.19607843 0.18431373 0.16862745]
  [0.18431373 0.17254902 0.15686275]
  [0.17647059 0.16470588 0.14901961]]

 [[0.58823529 0.59215686 0.67058824]
  [0.59215686 0.6        0.67058824]
  [0.60392157 0.61568627 0.67058824]
  ...
  [0.23529412 0.22352941 0.20784314]
  [0.22745098 0.21568627 0.2       ]
  [0.21568627 0.20392157 0.18823529]]

 [[0.57254902 0.56862745 0.63529412]
  [0.58039216 0.57254902 0.64705882]
  [0.6        0.59607843 0.65882353]
  ...
  [0.21960784 0.20784314 0.19215686]
  [0.23921569 0.22745098 0.21176471]
  [0.2627451  0.25098039 0.23529412]]]",0
2024-09-10 12:14:16,0.1570500135421753,0.1050000041723251,9.829950332641602,"[[[0.39607843 0.4627451  0.51372549]
  [0.39215686 0.45882353 0.50980392]
  [0.38431373 0.45098039 0.50196078]
  ...
  [0.4745098  0.49803922 0.47843137]
  [0.4745098  0.49803922 0.47843137]
  [0.47843137 0.50196078 0.48235294]]

 [[0.38823529 0.45490196 0.50588235]
  [0.40392157 0.47058824 0.52156863]
  [0.39215686 0.45882353 0.50980392]
  ...
  [0.4627451  0.50196078 0.47843137]
  [0.47058824 0.49411765 0.4745098 ]
  [0.47058824 0.49411765 0.4745098 ]]

 [[0.4        0.47058824 0.51372549]
  [0.4        0.46666667 0.51764706]
  [0.40392157 0.47058824 0.52156863]
  ...
  [0.45882353 0.50196078 0.47843137]
  [0.4627451  0.50196078 0.47843137]
  [0.45490196 0.49411765 0.47058824]]

 ...

 [[0.81568627 0.81568627 0.81568627]
  [0.81568627 0.81568627 0.81568627]
  [0.81568627 0.81568627 0.81568627]
  ...
  [0.2        0.2        0.2       ]
  [0.20392157 0.19215686 0.19215686]
  [0.19215686 0.17254902 0.17647059]]

 [[0.81568627 0.81568627 0.81568627]
  [0.81568627 0.81568627 0.81568627]
  [0.81568627 0.81176471 0.82352941]
  ...
  [0.22352941 0.22352941 0.22352941]
  [0.21960784 0.21960784 0.21960784]
  [0.22352941 0.22352941 0.22352941]]

 [[0.81568627 0.82352941 0.8       ]
  [0.81568627 0.81568627 0.81568627]
  [0.81568627 0.81568627 0.81960784]
  ...
  [0.23137255 0.21176471 0.21568627]
  [0.23529412 0.22745098 0.22745098]
  [0.24705882 0.24705882 0.24705882]]]",0
2024-09-10 12:14:17,0.1570500135421753,0.1050000041723251,9.829950332641602,"[[[0.39215686 0.44313725 0.49803922]
  [0.40784314 0.45882353 0.51372549]
  [0.40784314 0.45882353 0.51372549]
  ...
  [0.4627451  0.50196078 0.47843137]
  [0.4627451  0.50196078 0.47843137]
  [0.45490196 0.49411765 0.47058824]]

 [[0.40392157 0.45490196 0.50980392]
  [0.40784314 0.45882353 0.51372549]
  [0.40784314 0.45882353 0.51372549]
  ...
  [0.45882353 0.49803922 0.4745098 ]
  [0.46666667 0.50588235 0.48235294]
  [0.4627451  0.50196078 0.47843137]]

 [[0.38823529 0.45490196 0.50588235]
  [0.39215686 0.45882353 0.50980392]
  [0.39215686 0.45882353 0.50980392]
  ...
  [0.45490196 0.49411765 0.47058824]
  [0.45490196 0.49411765 0.47058824]
  [0.45490196 0.49411765 0.47058824]]

 ...

 [[0.81568627 0.81568627 0.81568627]
  [0.81568627 0.81568627 0.81568627]
  [0.81568627 0.81568627 0.81568627]
  ...
  [0.2        0.20392157 0.2       ]
  [0.19215686 0.19607843 0.18039216]
  [0.17647059 0.18039216 0.16470588]]

 [[0.81568627 0.81568627 0.81568627]
  [0.81568627 0.81568627 0.81568627]
  [0.81568627 0.81176471 0.82352941]
  ...
  [0.21176471 0.21176471 0.21176471]
  [0.23137255 0.21960784 0.22352941]
  [0.23921569 0.21960784 0.22352941]]

 [[0.81568627 0.82352941 0.8       ]
  [0.81568627 0.81568627 0.81568627]
  [0.81568627 0.81568627 0.81960784]
  ...
  [0.21960784 0.2        0.18823529]
  [0.21960784 0.22352941 0.20784314]
  [0.23529412 0.23921569 0.22352941]]]",0
2024-09-10 12:14:18,0.1570500135421753,0.1050000041723251,9.829950332641602,"[[[0.40784314 0.46666667 0.50196078]
  [0.40392157 0.4627451  0.49803922]
  [0.40392157 0.4627451  0.49803922]
  ...
  [0.4745098  0.50588235 0.46666667]
  [0.47058824 0.50196078 0.4627451 ]
  [0.47058824 0.50196078 0.4627451 ]]

 [[0.39215686 0.46666667 0.49803922]
  [0.39607843 0.47058824 0.50196078]
  [0.39215686 0.46666667 0.49803922]
  ...
  [0.4745098  0.50588235 0.46666667]
  [0.4745098  0.50588235 0.46666667]
  [0.46666667 0.49803922 0.45882353]]

 [[0.4        0.4745098  0.50588235]
  [0.39607843 0.47058824 0.50196078]
  [0.39607843 0.47058824 0.50196078]
  ...
  [0.4745098  0.50588235 0.46666667]
  [0.4745098  0.50588235 0.46666667]
  [0.4627451  0.49411765 0.45490196]]

 ...

 [[0.81568627 0.81960784 0.80392157]
  [0.81568627 0.81960784 0.80392157]
  [0.81568627 0.81960784 0.80392157]
  ...
  [0.20392157 0.19215686 0.17647059]
  [0.2        0.18823529 0.17254902]
  [0.18823529 0.17647059 0.16078431]]

 [[0.82745098 0.81568627 0.79607843]
  [0.82745098 0.81568627 0.8       ]
  [0.82745098 0.80784314 0.81176471]
  ...
  [0.23921569 0.24313725 0.22745098]
  [0.25882353 0.24705882 0.23137255]
  [0.25098039 0.23921569 0.22352941]]

 [[0.82745098 0.81568627 0.8       ]
  [0.82745098 0.80784314 0.81960784]
  [0.82745098 0.80784314 0.81568627]
  ...
  [0.24705882 0.25098039 0.23529412]
  [0.28235294 0.27058824 0.25490196]
  [0.29411765 0.28235294 0.26666667]]]",0
2024-09-10 12:14:19,0.1570500135421753,0.1050000041723251,9.829950332641602,"[[[0.39215686 0.45882353 0.50980392]
  [0.39215686 0.46666667 0.50196078]
  [0.38823529 0.4627451  0.49411765]
  ...
  [0.4745098  0.50588235 0.46666667]
  [0.4745098  0.50588235 0.46666667]
  [0.47058824 0.50196078 0.4627451 ]]

 [[0.39215686 0.46666667 0.49803922]
  [0.39607843 0.47058824 0.49803922]
  [0.39215686 0.46666667 0.49803922]
  ...
  [0.4745098  0.50588235 0.46666667]
  [0.4745098  0.50588235 0.46666667]
  [0.46666667 0.49803922 0.45882353]]

 [[0.39215686 0.46666667 0.49803922]
  [0.39215686 0.46666667 0.49803922]
  [0.39215686 0.46666667 0.49803922]
  ...
  [0.4627451  0.50588235 0.46666667]
  [0.4627451  0.50588235 0.46666667]
  [0.46666667 0.50980392 0.47058824]]

 ...

 [[0.81568627 0.81960784 0.80392157]
  [0.81568627 0.81960784 0.80392157]
  [0.81568627 0.81960784 0.80392157]
  ...
  [0.20392157 0.20784314 0.19215686]
  [0.18823529 0.19215686 0.17647059]
  [0.17647059 0.18039216 0.16470588]]

 [[0.82745098 0.81568627 0.8       ]
  [0.82745098 0.81568627 0.79607843]
  [0.82745098 0.81568627 0.79607843]
  ...
  [0.24705882 0.25098039 0.24705882]
  [0.23921569 0.23921569 0.23921569]
  [0.23137255 0.23137255 0.23137255]]

 [[0.82745098 0.81960784 0.79215686]
  [0.83529412 0.81960784 0.81176471]
  [0.82745098 0.81568627 0.8       ]
  ...
  [0.24705882 0.25098039 0.23529412]
  [0.27058824 0.2745098  0.26666667]
  [0.2745098  0.2745098  0.2745098 ]]]",0
2024-09-10 12:14:20,0.1570500135421753,0.1050000041723251,9.829950332641602,"[[[0.41176471 0.4627451  0.51764706]
  [0.40392157 0.45490196 0.50980392]
  [0.40784314 0.45882353 0.51372549]
  ...
  [0.4745098  0.50588235 0.46666667]
  [0.4745098  0.50980392 0.45882353]
  [0.48235294 0.51764706 0.46666667]]

 [[0.40784314 0.45882353 0.51372549]
  [0.40784314 0.45882353 0.51372549]
  [0.40784314 0.45882353 0.51372549]
  ...
  [0.4745098  0.50196078 0.47058824]
  [0.4745098  0.50588235 0.46666667]
  [0.4745098  0.50588235 0.46666667]]

 [[0.4        0.45882353 0.49411765]
  [0.40784314 0.46666667 0.50196078]
  [0.40392157 0.4627451  0.49803922]
  ...
  [0.4745098  0.50588235 0.46666667]
  [0.4745098  0.50588235 0.46666667]
  [0.46666667 0.49803922 0.45882353]]

 ...

 [[0.82745098 0.81568627 0.8       ]
  [0.82745098 0.81568627 0.8       ]
  [0.82745098 0.81568627 0.8       ]
  ...
  [0.19607843 0.2        0.18431373]
  [0.19607843 0.18431373 0.16862745]
  [0.18823529 0.17647059 0.16078431]]

 [[0.82745098 0.81568627 0.79215686]
  [0.82745098 0.81568627 0.8       ]
  [0.82745098 0.81568627 0.8       ]
  ...
  [0.23921569 0.23921569 0.23921569]
  [0.23529412 0.23529412 0.23529412]
  [0.24705882 0.24705882 0.24705882]]

 [[0.82745098 0.81568627 0.79607843]
  [0.82745098 0.81176471 0.80392157]
  [0.82745098 0.81568627 0.8       ]
  ...
  [0.24705882 0.24705882 0.24705882]
  [0.2745098  0.2745098  0.2745098 ]
  [0.28627451 0.28627451 0.28627451]]]",0
2024-09-10 12:14:21,0.1570500135421753,0.1050000041723251,9.829950332641602,"[[[0.39215686 0.45882353 0.50980392]
  [0.39215686 0.45882353 0.50980392]
  [0.39215686 0.45882353 0.50980392]
  ...
  [0.4745098  0.50588235 0.46666667]
  [0.47058824 0.50196078 0.4627451 ]
  [0.46666667 0.49803922 0.45882353]]

 [[0.4        0.46666667 0.51764706]
  [0.39215686 0.45882353 0.50980392]
  [0.39215686 0.45882353 0.50980392]
  ...
  [0.4745098  0.50588235 0.46666667]
  [0.4745098  0.50588235 0.46666667]
  [0.47058824 0.50196078 0.4627451 ]]

 [[0.40392157 0.47843137 0.50980392]
  [0.39215686 0.46666667 0.49803922]
  [0.39215686 0.46666667 0.49803922]
  ...
  [0.4745098  0.50588235 0.46666667]
  [0.4745098  0.50588235 0.46666667]
  [0.46666667 0.49803922 0.45882353]]

 ...

 [[0.81960784 0.81568627 0.8       ]
  [0.81568627 0.81960784 0.80392157]
  [0.81568627 0.81960784 0.80392157]
  ...
  [0.2        0.2        0.18431373]
  [0.2        0.18823529 0.17254902]
  [0.18431373 0.17254902 0.15686275]]

 [[0.82745098 0.81568627 0.79215686]
  [0.82745098 0.81568627 0.8       ]
  [0.82745098 0.81568627 0.8       ]
  ...
  [0.24705882 0.24705882 0.24705882]
  [0.23529412 0.23529412 0.23529412]
  [0.23921569 0.23921569 0.23921569]]

 [[0.82745098 0.81568627 0.79607843]
  [0.82745098 0.81176471 0.80392157]
  [0.82745098 0.81568627 0.8       ]
  ...
  [0.25490196 0.25882353 0.24313725]
  [0.27058824 0.2745098  0.26666667]
  [0.28235294 0.28235294 0.28235294]]]",0
2024-09-10 12:14:22,0.1570500135421753,0.1050000041723251,9.829950332641602,"[[[0.36862745 0.43529412 0.48627451]
  [0.36862745 0.43529412 0.48627451]
  [0.36862745 0.43529412 0.48627451]
  ...
  [0.44313725 0.46666667 0.44705882]
  [0.44313725 0.46666667 0.44705882]
  [0.43921569 0.4627451  0.44313725]]

 [[0.36862745 0.43529412 0.48627451]
  [0.36862745 0.43529412 0.48627451]
  [0.36862745 0.43529412 0.48627451]
  ...
  [0.43137255 0.47058824 0.44705882]
  [0.43529412 0.4745098  0.45098039]
  [0.43137255 0.47058824 0.44705882]]

 [[0.36862745 0.43529412 0.48627451]
  [0.36862745 0.43529412 0.48627451]
  [0.37647059 0.44313725 0.49411765]
  ...
  [0.43529412 0.47058824 0.44705882]
  [0.44313725 0.46666667 0.44705882]
  [0.43529412 0.45882353 0.43921569]]

 ...

 [[0.80784314 0.80392157 0.78823529]
  [0.8        0.80392157 0.78823529]
  [0.8        0.80392157 0.78823529]
  ...
  [0.19607843 0.19607843 0.19607843]
  [0.18431373 0.18431373 0.18431373]
  [0.17647059 0.17647059 0.17647059]]

 [[0.80392157 0.80392157 0.77647059]
  [0.8        0.80392157 0.78823529]
  [0.8        0.80392157 0.78823529]
  ...
  [0.22352941 0.21960784 0.22745098]
  [0.21960784 0.21568627 0.22352941]
  [0.22745098 0.22352941 0.23921569]]

 [[0.81176471 0.8        0.77647059]
  [0.81176471 0.79607843 0.78823529]
  [0.81176471 0.8        0.78431373]
  ...
  [0.21176471 0.21176471 0.21176471]
  [0.22745098 0.22745098 0.22745098]
  [0.25098039 0.25098039 0.25098039]]]",0
2024-09-10 12:14:23,0.1570500135421753,0.1050000041723251,9.829950332641602,"[[[0.37647059 0.43529412 0.50980392]
  [0.37254902 0.43529412 0.49019608]
  [0.35294118 0.41960784 0.47058824]
  ...
  [0.43137255 0.47058824 0.44705882]
  [0.44313725 0.46666667 0.44705882]
  [0.43921569 0.4627451  0.44313725]]

 [[0.36862745 0.43921569 0.48235294]
  [0.37647059 0.44313725 0.49411765]
  [0.36862745 0.43529412 0.48627451]
  ...
  [0.43137255 0.47058824 0.44705882]
  [0.44313725 0.4745098  0.43529412]
  [0.43529412 0.46666667 0.42745098]]

 [[0.36862745 0.43529412 0.48627451]
  [0.36862745 0.43529412 0.48627451]
  [0.36862745 0.43529412 0.48627451]
  ...
  [0.43137255 0.47058824 0.44705882]
  [0.44313725 0.4745098  0.43529412]
  [0.43529412 0.46666667 0.42745098]]

 ...

 [[0.8        0.8        0.8       ]
  [0.79607843 0.8        0.8       ]
  [0.80392157 0.80392157 0.80392157]
  ...
  [0.19607843 0.19607843 0.19607843]
  [0.18039216 0.18039216 0.18039216]
  [0.17254902 0.17254902 0.17254902]]

 [[0.8        0.78823529 0.79607843]
  [0.8        0.80392157 0.79607843]
  [0.8        0.8        0.8       ]
  ...
  [0.23137255 0.23137255 0.23137255]
  [0.23137255 0.23137255 0.23137255]
  [0.21960784 0.21960784 0.21960784]]

 [[0.81176471 0.8        0.77254902]
  [0.81176471 0.79607843 0.79215686]
  [0.81176471 0.8        0.78431373]
  ...
  [0.20784314 0.20784314 0.20784314]
  [0.21960784 0.21960784 0.21960784]
  [0.25098039 0.25098039 0.25098039]]]",0
2024-09-10 12:14:24,0.1570500135421753,0.1050000041723251,9.829950332641602,"[[[0.39607843 0.43921569 0.45490196]
  [0.39215686 0.43921569 0.44705882]
  [0.38823529 0.43529412 0.44313725]
  ...
  [0.46666667 0.48235294 0.43529412]
  [0.4745098  0.4745098  0.42745098]
  [0.47843137 0.47843137 0.43137255]]

 [[0.39607843 0.43529412 0.4627451 ]
  [0.39607843 0.43529412 0.4627451 ]
  [0.39607843 0.43529412 0.4627451 ]
  ...
  [0.46666667 0.49019608 0.43921569]
  [0.4627451  0.47843137 0.43137255]
  [0.45882353 0.4745098  0.42745098]]

 [[0.39607843 0.43529412 0.4627451 ]
  [0.39607843 0.43529412 0.4627451 ]
  [0.39607843 0.43529412 0.4627451 ]
  ...
  [0.4627451  0.47843137 0.43137255]
  [0.4627451  0.47843137 0.43137255]
  [0.45490196 0.47058824 0.42352941]]

 ...

 [[0.4627451  0.4745098  0.53333333]
  [0.44313725 0.45098039 0.51764706]
  [0.41568627 0.42745098 0.48627451]
  ...
  [0.21176471 0.19607843 0.18431373]
  [0.21960784 0.19215686 0.18039216]
  [0.20784314 0.18039216 0.16862745]]

 [[0.47843137 0.49019608 0.54509804]
  [0.44313725 0.45882353 0.52941176]
  [0.43921569 0.45098039 0.50588235]
  ...
  [0.26666667 0.25490196 0.23921569]
  [0.25882353 0.24705882 0.23137255]
  [0.24705882 0.23529412 0.21960784]]

 [[0.50196078 0.50196078 0.56078431]
  [0.4627451  0.4745098  0.53333333]
  [0.45490196 0.47058824 0.51372549]
  ...
  [0.23921569 0.22745098 0.21176471]
  [0.25882353 0.24705882 0.23137255]
  [0.28235294 0.27058824 0.25490196]]]",0
2024-09-10 12:14:25,0.1570500135421753,0.1050000041723251,9.829950332641602,"[[[0.39607843 0.43529412 0.4627451 ]
  [0.39607843 0.43529412 0.4627451 ]
  [0.39607843 0.43529412 0.4627451 ]
  ...
  [0.47058824 0.48627451 0.43921569]
  [0.47058824 0.48627451 0.43921569]
  [0.47058824 0.48627451 0.43921569]]

 [[0.39607843 0.43529412 0.4627451 ]
  [0.39607843 0.43529412 0.4627451 ]
  [0.39607843 0.43529412 0.4627451 ]
  ...
  [0.47058824 0.48627451 0.43921569]
  [0.47058824 0.48627451 0.43921569]
  [0.47058824 0.48627451 0.43921569]]

 [[0.39607843 0.43529412 0.4627451 ]
  [0.37647059 0.43921569 0.4627451 ]
  [0.37647059 0.43921569 0.4627451 ]
  ...
  [0.4627451  0.47843137 0.43137255]
  [0.4627451  0.47843137 0.43137255]
  [0.45490196 0.47058824 0.42352941]]

 ...

 [[0.4627451  0.48235294 0.54117647]
  [0.43137255 0.46666667 0.50588235]
  [0.40784314 0.44313725 0.48235294]
  ...
  [0.21568627 0.20392157 0.18823529]
  [0.19607843 0.18431373 0.16862745]
  [0.19215686 0.18039216 0.16470588]]

 [[0.47843137 0.49019608 0.54509804]
  [0.44705882 0.46666667 0.52941176]
  [0.44705882 0.45882353 0.51764706]
  ...
  [0.25098039 0.25490196 0.24313725]
  [0.24313725 0.24705882 0.23137255]
  [0.23921569 0.24313725 0.22745098]]

 [[0.50196078 0.49803922 0.55686275]
  [0.47843137 0.49019608 0.54901961]
  [0.4627451  0.4745098  0.52941176]
  ...
  [0.22745098 0.23137255 0.21176471]
  [0.25490196 0.26666667 0.23137255]
  [0.2627451  0.2745098  0.23921569]]]",0
2024-09-10 12:14:26,0.1570500135421753,0.1050000041723251,9.829950332641602,"[[[0.37647059 0.42745098 0.48235294]
  [0.36470588 0.42352941 0.45882353]
  [0.36470588 0.42352941 0.45882353]
  ...
  [0.44313725 0.46666667 0.44705882]
  [0.43529412 0.45882353 0.43921569]
  [0.43921569 0.4627451  0.44313725]]

 [[0.36470588 0.42352941 0.45882353]
  [0.36470588 0.42745098 0.45490196]
  [0.36470588 0.42352941 0.45882353]
  ...
  [0.44313725 0.46666667 0.44705882]
  [0.44313725 0.4745098  0.43529412]
  [0.44313725 0.4745098  0.43529412]]

 [[0.36862745 0.42745098 0.4627451 ]
  [0.36470588 0.42352941 0.45882353]
  [0.36862745 0.42745098 0.4627451 ]
  ...
  [0.44313725 0.47058824 0.44313725]
  [0.43529412 0.46666667 0.42745098]
  [0.43529412 0.46666667 0.42745098]]

 ...

 [[0.67058824 0.6745098  0.75686275]
  [0.68627451 0.69019608 0.77254902]
  [0.70588235 0.70980392 0.79215686]
  ...
  [0.19607843 0.18431373 0.16862745]
  [0.19607843 0.18431373 0.16862745]
  [0.19215686 0.18039216 0.16470588]]

 [[0.65098039 0.65098039 0.74509804]
  [0.65098039 0.65490196 0.73333333]
  [0.67843137 0.67843137 0.76470588]
  ...
  [0.24705882 0.23529412 0.21960784]
  [0.23529412 0.22352941 0.20784314]
  [0.23529412 0.22352941 0.20784314]]

 [[0.63137255 0.63529412 0.71372549]
  [0.64705882 0.64705882 0.74117647]
  [0.66666667 0.66666667 0.75294118]
  ...
  [0.22352941 0.21176471 0.19607843]
  [0.25098039 0.23921569 0.22352941]
  [0.27058824 0.25882353 0.24313725]]]",0
2024-09-10 12:14:27,0.1570500135421753,0.1050000041723251,9.829950332641602,"[[[0.39215686 0.43137255 0.45882353]
  [0.39607843 0.43529412 0.4627451 ]
  [0.39607843 0.43529412 0.4627451 ]
  ...
  [0.46666667 0.49019608 0.41176471]
  [0.4627451  0.48235294 0.42745098]
  [0.4627451  0.47843137 0.43137255]]

 [[0.39607843 0.43529412 0.4627451 ]
  [0.39607843 0.43529412 0.4627451 ]
  [0.39607843 0.43529412 0.4627451 ]
  ...
  [0.47058824 0.48627451 0.44313725]
  [0.4627451  0.47843137 0.43137255]
  [0.4627451  0.47843137 0.43137255]]

 [[0.38431373 0.44705882 0.47058824]
  [0.37647059 0.43921569 0.4627451 ]
  [0.37647059 0.43921569 0.4627451 ]
  ...
  [0.46666667 0.48235294 0.43529412]
  [0.4627451  0.47843137 0.43137255]
  [0.4627451  0.47843137 0.43137255]]

 ...

 [[0.46666667 0.48627451 0.54509804]
  [0.43921569 0.46666667 0.52941176]
  [0.40784314 0.43529412 0.49411765]
  ...
  [0.21960784 0.20784314 0.19215686]
  [0.20392157 0.19215686 0.17647059]
  [0.2        0.18823529 0.17254902]]

 [[0.49019608 0.50196078 0.55686275]
  [0.45882353 0.4745098  0.54117647]
  [0.44705882 0.45882353 0.51372549]
  ...
  [0.26666667 0.25490196 0.24313725]
  [0.25490196 0.24313725 0.22745098]
  [0.24313725 0.23137255 0.21568627]]

 [[0.49803922 0.49803922 0.55686275]
  [0.48235294 0.49411765 0.55294118]
  [0.47058824 0.48627451 0.5254902 ]
  ...
  [0.23137255 0.21960784 0.20392157]
  [0.26666667 0.25882353 0.22745098]
  [0.28235294 0.2745098  0.24313725]]]",0
2024-09-10 12:14:28,0.1570500135421753,0.1050000041723251,9.829950332641602,"[[[0.39215686 0.45490196 0.47843137]
  [0.39607843 0.45882353 0.48235294]
  [0.38823529 0.45098039 0.4745098 ]
  ...
  [0.48235294 0.49803922 0.45098039]
  [0.48627451 0.50980392 0.44313725]
  [0.47843137 0.50196078 0.42745098]]

 [[0.40392157 0.46666667 0.49019608]
  [0.38823529 0.45098039 0.4745098 ]
  [0.38823529 0.45098039 0.4745098 ]
  ...
  [0.49019608 0.50588235 0.45882353]
  [0.47843137 0.50196078 0.43529412]
  [0.47843137 0.50196078 0.42745098]]

 [[0.39215686 0.45490196 0.47843137]
  [0.39215686 0.45490196 0.47843137]
  [0.39215686 0.45490196 0.47843137]
  ...
  [0.48627451 0.50196078 0.45490196]
  [0.47843137 0.50196078 0.43137255]
  [0.48235294 0.50588235 0.43137255]]

 ...

 [[0.48235294 0.50980392 0.56862745]
  [0.45098039 0.48627451 0.54117647]
  [0.43529412 0.4627451  0.52156863]
  ...
  [0.22745098 0.21568627 0.2       ]
  [0.21568627 0.20392157 0.18823529]
  [0.20392157 0.19215686 0.17647059]]

 [[0.49411765 0.50196078 0.57254902]
  [0.46666667 0.49411765 0.56078431]
  [0.45098039 0.47843137 0.5372549 ]
  ...
  [0.27058824 0.25882353 0.23921569]
  [0.26666667 0.25490196 0.23921569]
  [0.25882353 0.24705882 0.23137255]]

 [[0.49803922 0.50980392 0.56862745]
  [0.48235294 0.50588235 0.57647059]
  [0.47058824 0.49803922 0.55294118]
  ...
  [0.25490196 0.23921569 0.23137255]
  [0.28627451 0.2745098  0.25882353]
  [0.30196078 0.29019608 0.27058824]]]",0
2024-09-10 12:14:29,0.1570500135421753,0.1050000041723251,9.829950332641602,"[[[0.40392157 0.45098039 0.45882353]
  [0.40784314 0.45490196 0.4627451 ]
  [0.40784314 0.45490196 0.4627451 ]
  ...
  [0.48235294 0.49803922 0.45098039]
  [0.48627451 0.50196078 0.45490196]
  [0.48235294 0.49803922 0.45098039]]

 [[0.38823529 0.45490196 0.46666667]
  [0.39215686 0.45490196 0.47843137]
  [0.39215686 0.45490196 0.47843137]
  ...
  [0.47843137 0.50196078 0.42745098]
  [0.48235294 0.50588235 0.43137255]
  [0.47843137 0.50196078 0.42745098]]

 [[0.4        0.4627451  0.48627451]
  [0.39215686 0.45490196 0.47843137]
  [0.39215686 0.45490196 0.47843137]
  ...
  [0.47843137 0.50196078 0.42745098]
  [0.47843137 0.50196078 0.42745098]
  [0.47843137 0.50196078 0.42745098]]

 ...

 [[0.49803922 0.50980392 0.56862745]
  [0.47058824 0.49803922 0.55686275]
  [0.44705882 0.4745098  0.53333333]
  ...
  [0.23137255 0.21960784 0.20392157]
  [0.21960784 0.20784314 0.19215686]
  [0.20784314 0.19607843 0.18039216]]

 [[0.48627451 0.50196078 0.57254902]
  [0.48235294 0.50980392 0.57254902]
  [0.45490196 0.48627451 0.5372549 ]
  ...
  [0.27058824 0.2745098  0.25882353]
  [0.27058824 0.2627451  0.25882353]
  [0.24313725 0.25882353 0.23921569]]

 [[0.51372549 0.52941176 0.58039216]
  [0.50588235 0.51764706 0.57647059]
  [0.47843137 0.49803922 0.53333333]
  ...
  [0.23921569 0.23921569 0.22352941]
  [0.26666667 0.27843137 0.24313725]
  [0.28627451 0.29803922 0.2627451 ]]]",0
2024-09-10 12:14:30,0.1570500135421753,0.1050000041723251,9.829950332641602,"[[[0.41176471 0.45098039 0.47843137]
  [0.40784314 0.44705882 0.4745098 ]
  [0.41176471 0.45098039 0.47843137]
  ...
  [0.48235294 0.49803922 0.45098039]
  [0.47843137 0.49411765 0.44705882]
  [0.48627451 0.50196078 0.45490196]]

 [[0.39215686 0.45490196 0.47843137]
  [0.40784314 0.47058824 0.49411765]
  [0.39215686 0.45490196 0.47843137]
  ...
  [0.48627451 0.50196078 0.45490196]
  [0.48627451 0.50196078 0.45490196]
  [0.48627451 0.50196078 0.45490196]]

 [[0.39215686 0.45490196 0.47843137]
  [0.39215686 0.45490196 0.47843137]
  [0.39215686 0.45490196 0.47843137]
  ...
  [0.49019608 0.50588235 0.4627451 ]
  [0.47843137 0.50196078 0.43137255]
  [0.47843137 0.50196078 0.42745098]]

 ...

 [[0.49803922 0.51372549 0.55686275]
  [0.49019608 0.50588235 0.54901961]
  [0.46666667 0.48235294 0.5254902 ]
  ...
  [0.22352941 0.21176471 0.19607843]
  [0.21176471 0.2        0.18431373]
  [0.19607843 0.18431373 0.16862745]]

 [[0.50980392 0.52156863 0.57254902]
  [0.48627451 0.50980392 0.56078431]
  [0.48235294 0.50196078 0.54117647]
  ...
  [0.27058824 0.2745098  0.2627451 ]
  [0.25490196 0.25882353 0.24313725]
  [0.25882353 0.2627451  0.24705882]]

 [[0.52941176 0.52941176 0.58039216]
  [0.51372549 0.5254902  0.57647059]
  [0.49411765 0.50980392 0.54901961]
  ...
  [0.25098039 0.25490196 0.23921569]
  [0.2745098  0.28627451 0.25098039]
  [0.30196078 0.31372549 0.27843137]]]",0
2024-09-10 12:14:32,0.1570500135421753,0.1050000041723251,9.829950332641602,"[[[0.41176471 0.45098039 0.47843137]
  [0.41960784 0.45882353 0.48627451]
  [0.41176471 0.45098039 0.47843137]
  ...
  [0.49019608 0.50588235 0.45882353]
  [0.48627451 0.50196078 0.45490196]
  [0.48235294 0.49803922 0.45098039]]

 [[0.42352941 0.4627451  0.49019608]
  [0.41176471 0.45098039 0.47843137]
  [0.41176471 0.45098039 0.47843137]
  ...
  [0.48627451 0.50196078 0.45490196]
  [0.48627451 0.50196078 0.45490196]
  [0.47843137 0.49411765 0.44705882]]

 [[0.41960784 0.45882353 0.48627451]
  [0.39215686 0.45490196 0.47843137]
  [0.39607843 0.45882353 0.48235294]
  ...
  [0.48627451 0.50196078 0.45490196]
  [0.47843137 0.50588235 0.42745098]
  [0.47843137 0.50588235 0.42352941]]

 ...

 [[0.56078431 0.54117647 0.57647059]
  [0.54117647 0.52941176 0.56470588]
  [0.52941176 0.51764706 0.55294118]
  ...
  [0.24313725 0.22745098 0.21176471]
  [0.20784314 0.19607843 0.18039216]
  [0.19215686 0.18039216 0.16470588]]

 [[0.57647059 0.54509804 0.58039216]
  [0.55294118 0.5372549  0.58039216]
  [0.5372549  0.52156863 0.56078431]
  ...
  [0.29019608 0.28235294 0.26666667]
  [0.2627451  0.26666667 0.25098039]
  [0.27058824 0.26666667 0.25098039]]

 [[0.58823529 0.56078431 0.59215686]
  [0.56470588 0.54901961 0.59215686]
  [0.55686275 0.54509804 0.58039216]
  ...
  [0.2627451  0.25098039 0.23529412]
  [0.27843137 0.25882353 0.24705882]
  [0.27843137 0.30196078 0.28235294]]]",0
2024-09-10 12:14:33,0.1570500135421753,0.1050000041723251,9.829950332641602,"[[[0.39215686 0.45098039 0.48627451]
  [0.38823529 0.45098039 0.4745098 ]
  [0.39215686 0.45490196 0.47843137]
  ...
  [0.48235294 0.50196078 0.42745098]
  [0.49411765 0.50196078 0.42745098]
  [0.48627451 0.49411765 0.41960784]]

 [[0.39607843 0.45882353 0.48235294]
  [0.39215686 0.45490196 0.47058824]
  [0.4        0.4627451  0.48627451]
  ...
  [0.4745098  0.50588235 0.42745098]
  [0.47843137 0.50196078 0.42745098]
  [0.47843137 0.50196078 0.42745098]]

 [[0.38431373 0.44705882 0.47058824]
  [0.39215686 0.45490196 0.47843137]
  [0.39215686 0.45490196 0.47843137]
  ...
  [0.47843137 0.50196078 0.42745098]
  [0.48627451 0.50980392 0.43529412]
  [0.47843137 0.50196078 0.42745098]]

 ...

 [[0.56470588 0.54509804 0.58039216]
  [0.54117647 0.52941176 0.56470588]
  [0.54117647 0.52941176 0.56470588]
  ...
  [0.23137255 0.21960784 0.20392157]
  [0.22745098 0.21568627 0.2       ]
  [0.22352941 0.21176471 0.19607843]]

 [[0.57254902 0.54117647 0.58431373]
  [0.55686275 0.54117647 0.58431373]
  [0.54509804 0.5372549  0.56470588]
  ...
  [0.29019608 0.27843137 0.2627451 ]
  [0.2745098  0.2627451  0.24705882]
  [0.28235294 0.27058824 0.25490196]]

 [[0.6        0.56862745 0.60784314]
  [0.56862745 0.55294118 0.59215686]
  [0.55686275 0.54509804 0.57647059]
  ...
  [0.25490196 0.24313725 0.22745098]
  [0.2745098  0.2627451  0.24705882]
  [0.30980392 0.29803922 0.28235294]]]",0
2024-09-10 12:14:34,0.1570500135421753,0.1050000041723251,9.829950332641602,"[[[0.41960784 0.45882353 0.48627451]
  [0.41176471 0.45098039 0.47843137]
  [0.41568627 0.45490196 0.48235294]
  ...
  [0.48627451 0.50980392 0.43529412]
  [0.47843137 0.49803922 0.43921569]
  [0.47843137 0.49411765 0.44705882]]

 [[0.4        0.4627451  0.48627451]
  [0.39215686 0.45490196 0.47843137]
  [0.4        0.4627451  0.48627451]
  ...
  [0.48627451 0.50980392 0.43529412]
  [0.49019608 0.50588235 0.45098039]
  [0.4745098  0.49019608 0.44313725]]

 [[0.40392157 0.46666667 0.49019608]
  [0.38823529 0.45098039 0.4745098 ]
  [0.39607843 0.45882353 0.48235294]
  ...
  [0.4745098  0.49411765 0.44313725]
  [0.47843137 0.50196078 0.43529412]
  [0.48627451 0.51372549 0.43137255]]

 ...

 [[0.54901961 0.5372549  0.57254902]
  [0.5372549  0.53333333 0.56862745]
  [0.53333333 0.52156863 0.55686275]
  ...
  [0.23137255 0.21568627 0.2       ]
  [0.23137255 0.20392157 0.19215686]
  [0.21960784 0.19215686 0.18039216]]

 [[0.56862745 0.54901961 0.58431373]
  [0.56470588 0.54901961 0.59215686]
  [0.54901961 0.54117647 0.56862745]
  ...
  [0.28235294 0.27058824 0.25490196]
  [0.25882353 0.24705882 0.23137255]
  [0.2745098  0.2627451  0.24705882]]

 [[0.60392157 0.58039216 0.6       ]
  [0.58431373 0.55294118 0.59607843]
  [0.56862745 0.5372549  0.57254902]
  ...
  [0.24705882 0.23529412 0.21960784]
  [0.28235294 0.27058824 0.25490196]
  [0.30588235 0.29411765 0.27843137]]]",0
2024-09-10 12:14:35,0.1570500135421753,0.1050000041723251,9.829950332641602,"[[[0.38823529 0.45098039 0.4745098 ]
  [0.4        0.4627451  0.48627451]
  [0.39215686 0.45490196 0.47843137]
  ...
  [0.48235294 0.49803922 0.45098039]
  [0.48235294 0.50588235 0.43921569]
  [0.47843137 0.50196078 0.42745098]]

 [[0.4        0.4627451  0.48627451]
  [0.39215686 0.45490196 0.47843137]
  [0.4        0.4627451  0.48627451]
  ...
  [0.48627451 0.50196078 0.45490196]
  [0.48627451 0.50980392 0.44313725]
  [0.48627451 0.50980392 0.43529412]]

 [[0.40392157 0.46666667 0.49019608]
  [0.38823529 0.45098039 0.4745098 ]
  [0.4        0.4627451  0.48627451]
  ...
  [0.48235294 0.49803922 0.45098039]
  [0.4745098  0.49803922 0.43137255]
  [0.47843137 0.50196078 0.42745098]]

 ...

 [[0.56470588 0.54509804 0.58039216]
  [0.52156863 0.50980392 0.54509804]
  [0.51764706 0.50588235 0.54117647]
  ...
  [0.22745098 0.21568627 0.2       ]
  [0.21960784 0.20784314 0.19215686]
  [0.20392157 0.19215686 0.17647059]]

 [[0.56078431 0.54117647 0.57647059]
  [0.54901961 0.53333333 0.57647059]
  [0.52156863 0.50980392 0.54901961]
  ...
  [0.29411765 0.28235294 0.2627451 ]
  [0.2627451  0.25098039 0.23529412]
  [0.27058824 0.25882353 0.24313725]]

 [[0.58039216 0.55294118 0.58431373]
  [0.56862745 0.5372549  0.58039216]
  [0.54901961 0.51764706 0.56078431]
  ...
  [0.24313725 0.22745098 0.21960784]
  [0.28235294 0.27058824 0.25490196]
  [0.29411765 0.28235294 0.2627451 ]]]",0
2024-09-10 12:14:36,0.1570500135421753,0.1050000041723251,9.829950332641602,"[[[0.41568627 0.45490196 0.48235294]
  [0.41176471 0.45098039 0.47843137]
  [0.41568627 0.45490196 0.48235294]
  ...
  [0.48235294 0.49803922 0.45098039]
  [0.4745098  0.49019608 0.44313725]
  [0.47843137 0.49411765 0.44705882]]

 [[0.41960784 0.45882353 0.48627451]
  [0.41960784 0.45882353 0.48627451]
  [0.41176471 0.45098039 0.47843137]
  ...
  [0.49411765 0.50980392 0.4627451 ]
  [0.48627451 0.50196078 0.45490196]
  [0.47843137 0.49411765 0.44705882]]

 [[0.39215686 0.45490196 0.47843137]
  [0.39215686 0.45490196 0.47843137]
  [0.39215686 0.45490196 0.47843137]
  ...
  [0.4745098  0.49019608 0.44313725]
  [0.48627451 0.50196078 0.45490196]
  [0.47843137 0.49411765 0.44705882]]

 ...

 [[0.5372549  0.53333333 0.56862745]
  [0.52156863 0.52941176 0.56078431]
  [0.50588235 0.51372549 0.54509804]
  ...
  [0.21960784 0.20784314 0.20392157]
  [0.20392157 0.20784314 0.19215686]
  [0.19215686 0.19607843 0.18039216]]

 [[0.54901961 0.53333333 0.57647059]
  [0.54901961 0.53333333 0.58039216]
  [0.52156863 0.51372549 0.54117647]
  ...
  [0.29411765 0.2745098  0.27843137]
  [0.2745098  0.2627451  0.24705882]
  [0.25882353 0.24705882 0.23137255]]

 [[0.58431373 0.55294118 0.59215686]
  [0.56078431 0.54117647 0.58823529]
  [0.54509804 0.53333333 0.56470588]
  ...
  [0.24705882 0.23529412 0.21568627]
  [0.28235294 0.27058824 0.25490196]
  [0.31372549 0.30196078 0.28627451]]]",0
2024-09-10 12:14:37,0.1570500135421753,0.1050000041723251,9.829950332641602,"[[[0.39607843 0.45490196 0.49019608]
  [0.38823529 0.45098039 0.4745098 ]
  [0.39215686 0.45490196 0.47843137]
  ...
  [0.47843137 0.49411765 0.44705882]
  [0.4745098  0.49019608 0.44313725]
  [0.4745098  0.49019608 0.44313725]]

 [[0.4        0.4627451  0.48627451]
  [0.39215686 0.45882353 0.47058824]
  [0.39215686 0.45490196 0.47843137]
  ...
  [0.48627451 0.50196078 0.45490196]
  [0.4745098  0.49803922 0.42352941]
  [0.47843137 0.50588235 0.42352941]]

 [[0.39215686 0.45490196 0.47843137]
  [0.39215686 0.45490196 0.47843137]
  [0.39215686 0.45490196 0.47843137]
  ...
  [0.48627451 0.50196078 0.45098039]
  [0.47843137 0.50196078 0.43529412]
  [0.47843137 0.50196078 0.42745098]]

 ...

 [[0.56470588 0.54509804 0.58039216]
  [0.54509804 0.53333333 0.56862745]
  [0.52156863 0.50980392 0.54509804]
  ...
  [0.23529412 0.21960784 0.20392157]
  [0.23529412 0.20784314 0.19607843]
  [0.21568627 0.18823529 0.17647059]]

 [[0.58431373 0.55294118 0.59215686]
  [0.55294118 0.52941176 0.57254902]
  [0.56078431 0.52941176 0.57254902]
  ...
  [0.2745098  0.2627451  0.24705882]
  [0.28235294 0.27058824 0.25490196]
  [0.26666667 0.25490196 0.23921569]]

 [[0.61176471 0.56862745 0.60392157]
  [0.57647059 0.54509804 0.58823529]
  [0.57254902 0.54117647 0.58039216]
  ...
  [0.25490196 0.24313725 0.22745098]
  [0.28235294 0.27058824 0.25490196]
  [0.30588235 0.29411765 0.27843137]]]",0
2024-09-10 12:14:38,0.1570500135421753,0.1050000041723251,9.829950332641602,"[[[0.36862745 0.42745098 0.4627451 ]
  [0.36470588 0.42352941 0.45882353]
  [0.36862745 0.42745098 0.4627451 ]
  ...
  [0.44313725 0.46666667 0.44705882]
  [0.43137255 0.45490196 0.43529412]
  [0.42745098 0.45098039 0.43137255]]

 [[0.38431373 0.44313725 0.47843137]
  [0.36470588 0.42352941 0.45882353]
  [0.35686275 0.41568627 0.45098039]
  ...
  [0.44313725 0.46666667 0.44705882]
  [0.44313725 0.46666667 0.44705882]
  [0.44313725 0.46666667 0.44705882]]

 [[0.36470588 0.42352941 0.45882353]
  [0.36470588 0.42352941 0.45882353]
  [0.36470588 0.42352941 0.45882353]
  ...
  [0.44313725 0.4745098  0.43529412]
  [0.44313725 0.4745098  0.43529412]
  [0.43529412 0.46666667 0.42745098]]

 ...

 [[0.68235294 0.70196078 0.78431373]
  [0.69411765 0.71372549 0.79607843]
  [0.70980392 0.72941176 0.81176471]
  ...
  [0.20392157 0.19215686 0.18039216]
  [0.2        0.18039216 0.18431373]
  [0.20392157 0.18431373 0.18823529]]

 [[0.69019608 0.70588235 0.79607843]
  [0.69411765 0.70980392 0.80392157]
  [0.71372549 0.7372549  0.80784314]
  ...
  [0.24705882 0.22745098 0.23137255]
  [0.24705882 0.22745098 0.23137255]
  [0.24705882 0.22745098 0.23137255]]

 [[0.69019608 0.69019608 0.78431373]
  [0.70588235 0.70196078 0.80392157]
  [0.72156863 0.7254902  0.80784314]
  ...
  [0.22745098 0.20784314 0.21176471]
  [0.25490196 0.23529412 0.23921569]
  [0.28235294 0.2627451  0.26666667]]]",0
2024-09-10 12:14:39,0.1570500135421753,0.1050000041723251,9.829950332641602,"[[[0.42352941 0.4627451  0.49019608]
  [0.41176471 0.45098039 0.47843137]
  [0.40784314 0.44705882 0.4745098 ]
  ...
  [0.48235294 0.49803922 0.45098039]
  [0.49019608 0.49019608 0.44313725]
  [0.48627451 0.48627451 0.43921569]]

 [[0.39215686 0.45490196 0.47843137]
  [0.4        0.4627451  0.48627451]
  [0.39607843 0.45882353 0.48235294]
  ...
  [0.48235294 0.50588235 0.45490196]
  [0.49019608 0.50588235 0.45882353]
  [0.47843137 0.49411765 0.44705882]]

 [[0.38823529 0.45882353 0.4627451 ]
  [0.39215686 0.45490196 0.47843137]
  [0.39215686 0.45490196 0.47843137]
  ...
  [0.47843137 0.49411765 0.44705882]
  [0.47843137 0.50196078 0.42745098]
  [0.47843137 0.50588235 0.42352941]]

 ...

 [[0.56470588 0.54509804 0.58039216]
  [0.53333333 0.52156863 0.55686275]
  [0.53333333 0.52156863 0.55686275]
  ...
  [0.23137255 0.21568627 0.20392157]
  [0.21568627 0.20392157 0.18823529]
  [0.20784314 0.19607843 0.18039216]]

 [[0.59215686 0.56078431 0.60392157]
  [0.57647059 0.54509804 0.58823529]
  [0.55686275 0.52941176 0.56078431]
  ...
  [0.30196078 0.28235294 0.27058824]
  [0.2627451  0.26666667 0.25098039]
  [0.25098039 0.25490196 0.23921569]]

 [[0.6        0.56862745 0.60784314]
  [0.57647059 0.54509804 0.58431373]
  [0.57254902 0.54117647 0.57647059]
  ...
  [0.25098039 0.24313725 0.22745098]
  [0.28627451 0.27058824 0.25882353]
  [0.27843137 0.29803922 0.27843137]]]",0
2024-09-10 12:14:40,0.1570500135421753,0.1050000041723251,9.829950332641602,"[[[0.41568627 0.45490196 0.48235294]
  [0.41176471 0.45098039 0.47843137]
  [0.41176471 0.45098039 0.47843137]
  ...
  [0.47843137 0.50588235 0.42352941]
  [0.48627451 0.50980392 0.43529412]
  [0.47843137 0.50196078 0.42745098]]

 [[0.41960784 0.45882353 0.48627451]
  [0.41176471 0.45098039 0.47843137]
  [0.41176471 0.45098039 0.47843137]
  ...
  [0.47843137 0.49411765 0.44705882]
  [0.48627451 0.50980392 0.43529412]
  [0.47843137 0.50196078 0.42745098]]

 [[0.41960784 0.45882353 0.48627451]
  [0.40784314 0.44705882 0.4745098 ]
  [0.41176471 0.45098039 0.47843137]
  ...
  [0.47843137 0.49411765 0.44313725]
  [0.47843137 0.50196078 0.43529412]
  [0.47843137 0.50196078 0.42745098]]

 ...

 [[0.56078431 0.54117647 0.57647059]
  [0.54901961 0.53333333 0.57647059]
  [0.5372549  0.5254902  0.56078431]
  ...
  [0.22745098 0.21568627 0.2       ]
  [0.21568627 0.20392157 0.18823529]
  [0.21176471 0.2        0.18431373]]

 [[0.58431373 0.55686275 0.58431373]
  [0.57647059 0.54509804 0.58823529]
  [0.56078431 0.52941176 0.56078431]
  ...
  [0.28235294 0.28627451 0.2745098 ]
  [0.27058824 0.26666667 0.25098039]
  [0.27058824 0.25882353 0.24313725]]

 [[0.60392157 0.58039216 0.59607843]
  [0.58039216 0.55294118 0.58039216]
  [0.56078431 0.54117647 0.55294118]
  ...
  [0.24705882 0.23529412 0.21960784]
  [0.28627451 0.27843137 0.24705882]
  [0.29803922 0.29019608 0.25882353]]]",0
2024-09-10 12:14:41,0.1570500135421753,0.1050000041723251,9.829950332641602,"[[[0.39215686 0.45098039 0.48627451]
  [0.39215686 0.45490196 0.47843137]
  [0.4        0.4627451  0.48627451]
  ...
  [0.48627451 0.50196078 0.45490196]
  [0.49019608 0.50588235 0.45882353]
  [0.47843137 0.49411765 0.44705882]]

 [[0.4        0.45882353 0.49411765]
  [0.39607843 0.45882353 0.48235294]
  [0.39215686 0.45490196 0.47843137]
  ...
  [0.48627451 0.50196078 0.45490196]
  [0.48627451 0.50196078 0.45490196]
  [0.4745098  0.49019608 0.44313725]]

 [[0.4        0.4627451  0.48627451]
  [0.4        0.46666667 0.47843137]
  [0.38823529 0.45098039 0.4745098 ]
  ...
  [0.47843137 0.49411765 0.44705882]
  [0.49411765 0.50980392 0.4627451 ]
  [0.48235294 0.49803922 0.45098039]]

 ...

 [[0.39607843 0.43137255 0.47058824]
  [0.36470588 0.38039216 0.42352941]
  [0.34117647 0.35294118 0.40784314]
  ...
  [0.22745098 0.21568627 0.2       ]
  [0.21568627 0.20392157 0.18823529]
  [0.21176471 0.2        0.18431373]]

 [[0.43921569 0.45882353 0.5372549 ]
  [0.41176471 0.43921569 0.50588235]
  [0.38039216 0.41176471 0.4627451 ]
  ...
  [0.27843137 0.28235294 0.26666667]
  [0.26666667 0.2627451  0.24705882]
  [0.26666667 0.25490196 0.23921569]]

 [[0.45882353 0.48627451 0.54901961]
  [0.44313725 0.46666667 0.5372549 ]
  [0.41568627 0.44313725 0.49803922]
  ...
  [0.25098039 0.23921569 0.22352941]
  [0.29411765 0.28235294 0.26666667]
  [0.29803922 0.28627451 0.27058824]]]",0
2024-09-10 12:14:42,0.1570500135421753,0.1050000041723251,9.829950332641602,"[[[0.38823529 0.45098039 0.4745098 ]
  [0.38823529 0.45098039 0.4745098 ]
  [0.38431373 0.44705882 0.47058824]
  ...
  [0.48235294 0.49803922 0.45098039]
  [0.48627451 0.50196078 0.45490196]
  [0.48235294 0.49803922 0.45098039]]

 [[0.4        0.4627451  0.48627451]
  [0.4        0.4627451  0.48627451]
  [0.39215686 0.45490196 0.47843137]
  ...
  [0.48627451 0.50196078 0.45490196]
  [0.47843137 0.49411765 0.44705882]
  [0.48627451 0.50196078 0.45490196]]

 [[0.4        0.4627451  0.48627451]
  [0.4        0.4627451  0.48627451]
  [0.40392157 0.46666667 0.49019608]
  ...
  [0.47843137 0.49411765 0.44705882]
  [0.47843137 0.49411765 0.44705882]
  [0.48235294 0.49803922 0.45098039]]

 ...

 [[0.39607843 0.42745098 0.47843137]
  [0.37254902 0.38823529 0.43137255]
  [0.34117647 0.35686275 0.4       ]
  ...
  [0.22745098 0.21568627 0.2       ]
  [0.21960784 0.20392157 0.18823529]
  [0.22352941 0.21176471 0.19607843]]

 [[0.44313725 0.47058824 0.5372549 ]
  [0.43137255 0.45882353 0.5254902 ]
  [0.38039216 0.41176471 0.4627451 ]
  ...
  [0.27058824 0.28235294 0.2627451 ]
  [0.28235294 0.27058824 0.25490196]
  [0.2745098  0.2627451  0.24705882]]

 [[0.45882353 0.48627451 0.54509804]
  [0.44705882 0.4745098  0.54117647]
  [0.41960784 0.45098039 0.50588235]
  ...
  [0.24705882 0.23137255 0.21960784]
  [0.27843137 0.26666667 0.25098039]
  [0.30196078 0.29019608 0.2745098 ]]]",0
2024-09-10 12:14:43,0.1570500135421753,0.1050000041723251,9.829950332641602,"[[[0.41176471 0.44705882 0.48627451]
  [0.41176471 0.44705882 0.48627451]
  [0.4        0.43529412 0.4745098 ]
  ...
  [0.48627451 0.50196078 0.45490196]
  [0.48235294 0.49803922 0.45098039]
  [0.4745098  0.49019608 0.44313725]]

 [[0.41960784 0.45098039 0.48627451]
  [0.4        0.4627451  0.48627451]
  [0.38431373 0.45882353 0.47843137]
  ...
  [0.48627451 0.50196078 0.45490196]
  [0.48235294 0.49803922 0.45098039]
  [0.47843137 0.49411765 0.44705882]]

 [[0.38823529 0.45098039 0.4745098 ]
  [0.39215686 0.45882353 0.47058824]
  [0.38823529 0.45098039 0.4745098 ]
  ...
  [0.48235294 0.49803922 0.45098039]
  [0.49019608 0.50588235 0.45882353]
  [0.47843137 0.49411765 0.44705882]]

 ...

 [[0.42352941 0.43921569 0.48235294]
  [0.38039216 0.39607843 0.43921569]
  [0.34509804 0.36078431 0.40392157]
  ...
  [0.23529412 0.22352941 0.20784314]
  [0.21960784 0.20784314 0.19215686]
  [0.20784314 0.19607843 0.18039216]]

 [[0.45490196 0.4627451  0.53333333]
  [0.42352941 0.45098039 0.51764706]
  [0.37647059 0.40392157 0.45882353]
  ...
  [0.27058824 0.27843137 0.27058824]
  [0.27058824 0.25098039 0.25490196]
  [0.27843137 0.2627451  0.25882353]]

 [[0.48235294 0.49019608 0.55686275]
  [0.44705882 0.47058824 0.5372549 ]
  [0.42745098 0.45490196 0.51372549]
  ...
  [0.25882353 0.24313725 0.23137255]
  [0.27843137 0.2627451  0.2627451 ]
  [0.31764706 0.30196078 0.30196078]]]",0
2024-09-10 12:14:44,0.1570500135421753,0.1050000041723251,9.829950332641602,"[[[0.38823529 0.45882353 0.4627451 ]
  [0.38823529 0.45882353 0.4627451 ]
  [0.38823529 0.45882353 0.4627451 ]
  ...
  [0.4745098  0.49019608 0.44313725]
  [0.47843137 0.49411765 0.44705882]
  [0.48235294 0.49803922 0.45098039]]

 [[0.4        0.4627451  0.48627451]
  [0.39607843 0.45882353 0.48235294]
  [0.38823529 0.45098039 0.4745098 ]
  ...
  [0.48627451 0.50196078 0.45490196]
  [0.47843137 0.49411765 0.44705882]
  [0.48627451 0.50196078 0.45490196]]

 [[0.40392157 0.46666667 0.49019608]
  [0.39215686 0.45490196 0.47843137]
  [0.4        0.4627451  0.48627451]
  ...
  [0.48627451 0.50196078 0.45490196]
  [0.47843137 0.49411765 0.44705882]
  [0.47843137 0.49411765 0.44705882]]

 ...

 [[0.45490196 0.48235294 0.54117647]
  [0.42352941 0.45098039 0.50980392]
  [0.38823529 0.41960784 0.4745098 ]
  ...
  [0.23137255 0.21960784 0.20392157]
  [0.21176471 0.2        0.18431373]
  [0.19215686 0.18039216 0.16470588]]

 [[0.46666667 0.49411765 0.55294118]
  [0.44705882 0.46666667 0.56470588]
  [0.43137255 0.45098039 0.53333333]
  ...
  [0.2627451  0.26666667 0.25098039]
  [0.25098039 0.24705882 0.23137255]
  [0.26666667 0.25490196 0.23921569]]

 [[0.48235294 0.49019608 0.56470588]
  [0.45882353 0.48627451 0.54901961]
  [0.45490196 0.48235294 0.5372549 ]
  ...
  [0.24705882 0.23529412 0.21960784]
  [0.2745098  0.2627451  0.24705882]
  [0.29411765 0.28235294 0.26666667]]]",0
2024-09-10 12:14:45,0.1570500135421753,0.1050000041723251,9.829950332641602,"[[[0.41568627 0.45098039 0.49019608]
  [0.39215686 0.45490196 0.47843137]
  [0.39215686 0.45490196 0.47843137]
  ...
  [0.47843137 0.49411765 0.44705882]
  [0.48235294 0.49803922 0.45098039]
  [0.48627451 0.50196078 0.45490196]]

 [[0.38431373 0.45882353 0.47843137]
  [0.39215686 0.45882353 0.47058824]
  [0.39215686 0.45490196 0.47843137]
  ...
  [0.48627451 0.50196078 0.45490196]
  [0.48627451 0.50196078 0.45490196]
  [0.48627451 0.50196078 0.45490196]]

 [[0.4        0.4627451  0.48627451]
  [0.39215686 0.45490196 0.47843137]
  [0.40784314 0.47058824 0.49411765]
  ...
  [0.48627451 0.50196078 0.45490196]
  [0.48627451 0.50196078 0.45490196]
  [0.47843137 0.49411765 0.44705882]]

 ...

 [[0.45098039 0.47843137 0.5372549 ]
  [0.41568627 0.44313725 0.50196078]
  [0.37254902 0.4        0.45490196]
  ...
  [0.21960784 0.20784314 0.19215686]
  [0.21176471 0.2        0.18431373]
  [0.19607843 0.18431373 0.16862745]]

 [[0.45882353 0.48627451 0.54509804]
  [0.45098039 0.47058824 0.55686275]
  [0.42352941 0.44313725 0.52941176]
  ...
  [0.2745098  0.25882353 0.24705882]
  [0.26666667 0.25490196 0.23921569]
  [0.25490196 0.24313725 0.22745098]]

 [[0.4745098  0.50588235 0.56078431]
  [0.46666667 0.49411765 0.56078431]
  [0.43921569 0.46666667 0.52941176]
  ...
  [0.24313725 0.23529412 0.21960784]
  [0.2745098  0.27843137 0.2627451 ]
  [0.28627451 0.29019608 0.2745098 ]]]",0
2024-09-10 12:14:46,0.1570500135421753,0.1050000041723251,9.829950332641602,"[[[0.41568627 0.45490196 0.48235294]
  [0.40392157 0.44313725 0.47058824]
  [0.41568627 0.45490196 0.48235294]
  ...
  [0.48627451 0.50196078 0.45490196]
  [0.48235294 0.49411765 0.45882353]
  [0.47843137 0.49019608 0.45490196]]

 [[0.41960784 0.45490196 0.48235294]
  [0.4        0.4627451  0.48627451]
  [0.39215686 0.46666667 0.48627451]
  ...
  [0.47843137 0.49803922 0.44313725]
  [0.48627451 0.50196078 0.45490196]
  [0.48627451 0.50196078 0.45490196]]

 [[0.4        0.4627451  0.48627451]
  [0.39215686 0.45490196 0.47843137]
  [0.4        0.4627451  0.48627451]
  ...
  [0.48627451 0.50196078 0.45490196]
  [0.48235294 0.49803922 0.45098039]
  [0.48627451 0.50196078 0.45490196]]

 ...

 [[0.45098039 0.47843137 0.5372549 ]
  [0.39607843 0.42352941 0.48235294]
  [0.35294118 0.38039216 0.43921569]
  ...
  [0.21960784 0.20392157 0.18823529]
  [0.20784314 0.19607843 0.18039216]
  [0.19607843 0.18431373 0.16862745]]

 [[0.45098039 0.47058824 0.55294118]
  [0.43921569 0.45490196 0.54509804]
  [0.41176471 0.43137255 0.50980392]
  ...
  [0.27843137 0.26666667 0.25098039]
  [0.24705882 0.25098039 0.23529412]
  [0.25490196 0.25882353 0.24313725]]

 [[0.47058824 0.48627451 0.57647059]
  [0.45098039 0.46666667 0.56470588]
  [0.44313725 0.46666667 0.54117647]
  ...
  [0.24313725 0.23137255 0.21568627]
  [0.27058824 0.2745098  0.25882353]
  [0.28627451 0.29019608 0.2745098 ]]]",0
2024-09-10 12:14:47,0.1570500135421753,0.1050000041723251,9.829950332641602,"[[[0.41960784 0.45490196 0.49411765]
  [0.41176471 0.44705882 0.48627451]
  [0.40784314 0.44313725 0.48235294]
  ...
  [0.48627451 0.50196078 0.45882353]
  [0.48235294 0.49411765 0.45882353]
  [0.48235294 0.49411765 0.45882353]]

 [[0.41568627 0.45098039 0.49019608]
  [0.41568627 0.45098039 0.49019608]
  [0.41568627 0.45098039 0.49019608]
  ...
  [0.48627451 0.50588235 0.45098039]
  [0.48627451 0.50196078 0.45490196]
  [0.4745098  0.49019608 0.44313725]]

 [[0.41960784 0.45882353 0.48627451]
  [0.4        0.4627451  0.48627451]
  [0.4        0.4627451  0.48627451]
  ...
  [0.48627451 0.50196078 0.45490196]
  [0.47843137 0.49411765 0.44705882]
  [0.47843137 0.49411765 0.44705882]]

 ...

 [[0.45098039 0.47058824 0.55294118]
  [0.41568627 0.44313725 0.50196078]
  [0.37254902 0.4        0.45882353]
  ...
  [0.21960784 0.20784314 0.19215686]
  [0.21568627 0.20392157 0.18823529]
  [0.20784314 0.19607843 0.18039216]]

 [[0.4745098  0.49019608 0.58431373]
  [0.45490196 0.47843137 0.55294118]
  [0.42352941 0.44313725 0.52941176]
  ...
  [0.27058824 0.27058824 0.27058824]
  [0.2627451  0.2627451  0.2627451 ]
  [0.25098039 0.25098039 0.25098039]]

 [[0.4745098  0.50588235 0.56078431]
  [0.46666667 0.48235294 0.57647059]
  [0.44705882 0.46666667 0.55294118]
  ...
  [0.23137255 0.23529412 0.21960784]
  [0.25882353 0.2627451  0.24705882]
  [0.29411765 0.29803922 0.28235294]]]",0
2024-09-10 12:14:48,0.1570500135421753,0.1050000041723251,9.829950332641602,"[[[0.41568627 0.45098039 0.49019608]
  [0.41568627 0.45098039 0.49019608]
  [0.42352941 0.44705882 0.49019608]
  ...
  [0.48235294 0.49803922 0.45098039]
  [0.48235294 0.49803922 0.45098039]
  [0.48235294 0.49803922 0.45098039]]

 [[0.42352941 0.45490196 0.49411765]
  [0.39607843 0.45882353 0.49411765]
  [0.38431373 0.44705882 0.48235294]
  ...
  [0.49019608 0.50588235 0.45882353]
  [0.48627451 0.50196078 0.45490196]
  [0.48627451 0.50196078 0.45490196]]

 [[0.39607843 0.45490196 0.49019608]
  [0.39607843 0.45490196 0.49019608]
  [0.39607843 0.45490196 0.49019608]
  ...
  [0.48627451 0.50196078 0.45490196]
  [0.48627451 0.50196078 0.45490196]
  [0.47843137 0.49411765 0.44705882]]

 ...

 [[0.45098039 0.47843137 0.5372549 ]
  [0.42745098 0.45490196 0.51372549]
  [0.37254902 0.4        0.45882353]
  ...
  [0.21568627 0.20392157 0.19215686]
  [0.21568627 0.19607843 0.2       ]
  [0.21568627 0.19607843 0.2       ]]

 [[0.4745098  0.49019608 0.58431373]
  [0.45882353 0.47843137 0.56470588]
  [0.44705882 0.46666667 0.54901961]
  ...
  [0.25882353 0.2627451  0.2627451 ]
  [0.2627451  0.2627451  0.2627451 ]
  [0.25490196 0.25490196 0.25490196]]

 [[0.48627451 0.50980392 0.57647059]
  [0.47058824 0.48627451 0.58039216]
  [0.44705882 0.46666667 0.55686275]
  ...
  [0.23529412 0.23529412 0.21960784]
  [0.28627451 0.2745098  0.25882353]
  [0.29803922 0.28627451 0.27058824]]]",0
2024-09-10 12:14:49,0.1570500135421753,0.1050000041723251,9.829950332641602,"[[[0.36862745 0.42745098 0.4627451 ]
  [0.36470588 0.42352941 0.45882353]
  [0.36078431 0.41960784 0.45490196]
  ...
  [0.44313725 0.4745098  0.43529412]
  [0.43137255 0.4627451  0.42352941]
  [0.44313725 0.4745098  0.43529412]]

 [[0.36470588 0.42352941 0.45882353]
  [0.36470588 0.42352941 0.45882353]
  [0.36470588 0.42352941 0.45882353]
  ...
  [0.44313725 0.4745098  0.43529412]
  [0.44313725 0.4745098  0.43529412]
  [0.44313725 0.4745098  0.43529412]]

 [[0.36470588 0.42352941 0.45882353]
  [0.36470588 0.42352941 0.45882353]
  [0.36470588 0.42352941 0.45882353]
  ...
  [0.44313725 0.4745098  0.43529412]
  [0.45098039 0.48235294 0.44313725]
  [0.44313725 0.4745098  0.43529412]]

 ...

 [[0.43529412 0.47843137 0.58823529]
  [0.43137255 0.4627451  0.57647059]
  [0.40784314 0.43921569 0.55294118]
  ...
  [0.19607843 0.18431373 0.16862745]
  [0.19215686 0.18039216 0.16470588]
  [0.18431373 0.17254902 0.15686275]]

 [[0.45490196 0.48627451 0.60392157]
  [0.43921569 0.47058824 0.58823529]
  [0.41960784 0.45098039 0.56862745]
  ...
  [0.24313725 0.23137255 0.21568627]
  [0.23529412 0.22352941 0.20784314]
  [0.22745098 0.21568627 0.2       ]]

 [[0.43921569 0.48627451 0.59215686]
  [0.44313725 0.47843137 0.58823529]
  [0.41568627 0.45098039 0.56078431]
  ...
  [0.21568627 0.20392157 0.18823529]
  [0.24705882 0.23529412 0.21960784]
  [0.2627451  0.25098039 0.23529412]]]",0
2024-09-10 12:14:50,0.1570500135421753,0.1050000041723251,9.829950332641602,"[[[0.39215686 0.45098039 0.48627451]
  [0.39607843 0.45490196 0.49019608]
  [0.39607843 0.45490196 0.49019608]
  ...
  [0.49019608 0.50588235 0.45882353]
  [0.48627451 0.50196078 0.45490196]
  [0.4745098  0.49019608 0.44313725]]

 [[0.38431373 0.44705882 0.4745098 ]
  [0.4        0.4627451  0.48627451]
  [0.40392157 0.46666667 0.49019608]
  ...
  [0.48235294 0.49803922 0.45098039]
  [0.49019608 0.50588235 0.45882353]
  [0.4745098  0.49019608 0.44313725]]

 [[0.4        0.4627451  0.48627451]
  [0.4        0.46666667 0.47843137]
  [0.4        0.4627451  0.48627451]
  ...
  [0.48627451 0.50196078 0.45490196]
  [0.48627451 0.50196078 0.45490196]
  [0.47843137 0.49411765 0.44705882]]

 ...

 [[0.45490196 0.4745098  0.55686275]
  [0.42745098 0.45490196 0.51372549]
  [0.38039216 0.40784314 0.46666667]
  ...
  [0.22745098 0.20784314 0.21176471]
  [0.21176471 0.19215686 0.19607843]
  [0.20784314 0.18823529 0.19215686]]

 [[0.48235294 0.49803922 0.59215686]
  [0.46666667 0.48235294 0.57254902]
  [0.43137255 0.45490196 0.52941176]
  ...
  [0.2745098  0.2745098  0.2745098 ]
  [0.25882353 0.25882353 0.25882353]
  [0.2627451  0.2627451  0.2627451 ]]

 [[0.48235294 0.50196078 0.59607843]
  [0.47058824 0.48627451 0.58039216]
  [0.44705882 0.46666667 0.55686275]
  ...
  [0.23137255 0.23137255 0.23137255]
  [0.2627451  0.2627451  0.2627451 ]
  [0.29019608 0.29019608 0.29019608]]]",0
2024-09-10 12:14:51,0.1570500135421753,0.1050000041723251,9.829950332641602,"[[[0.41568627 0.45098039 0.49019608]
  [0.41568627 0.45098039 0.49019608]
  [0.41176471 0.44705882 0.48627451]
  ...
  [0.48627451 0.50196078 0.45490196]
  [0.4745098  0.49019608 0.44313725]
  [0.47843137 0.49411765 0.44705882]]

 [[0.40392157 0.46666667 0.49411765]
  [0.38823529 0.45098039 0.4745098 ]
  [0.40392157 0.46666667 0.49019608]
  ...
  [0.47843137 0.49411765 0.44705882]
  [0.47843137 0.49411765 0.44705882]
  [0.47843137 0.49411765 0.44705882]]

 [[0.4        0.4627451  0.48627451]
  [0.40784314 0.47058824 0.48627451]
  [0.39215686 0.45490196 0.47843137]
  ...
  [0.48235294 0.49803922 0.45098039]
  [0.47843137 0.49411765 0.44705882]
  [0.47843137 0.49411765 0.44705882]]

 ...

 [[0.4745098  0.49019608 0.53333333]
  [0.44705882 0.47058824 0.51372549]
  [0.41176471 0.42745098 0.47058824]
  ...
  [0.21960784 0.20784314 0.19215686]
  [0.22745098 0.21960784 0.18823529]
  [0.19607843 0.18823529 0.15686275]]

 [[0.50588235 0.50588235 0.55686275]
  [0.47843137 0.49411765 0.5372549 ]
  [0.4627451  0.4745098  0.5254902 ]
  ...
  [0.25098039 0.25490196 0.23921569]
  [0.25882353 0.25098039 0.23529412]
  [0.25882353 0.24705882 0.23137255]]

 [[0.52156863 0.52156863 0.56862745]
  [0.49803922 0.50980392 0.56470588]
  [0.48235294 0.49411765 0.54509804]
  ...
  [0.23137255 0.21960784 0.20392157]
  [0.27843137 0.26666667 0.25098039]
  [0.29803922 0.28627451 0.27058824]]]",0
2024-09-10 12:14:52,0.1570500135421753,0.1050000041723251,9.829950332641602,"[[[0.4        0.4627451  0.48627451]
  [0.39607843 0.45882353 0.48235294]
  [0.4        0.4627451  0.48627451]
  ...
  [0.48235294 0.49803922 0.45098039]
  [0.48235294 0.49803922 0.45098039]
  [0.48235294 0.49803922 0.45098039]]

 [[0.4        0.4627451  0.48627451]
  [0.4        0.4627451  0.48627451]
  [0.4        0.4627451  0.48627451]
  ...
  [0.48235294 0.49803922 0.45098039]
  [0.47843137 0.49411765 0.44705882]
  [0.47058824 0.48627451 0.43921569]]

 [[0.4        0.4627451  0.48627451]
  [0.4        0.4627451  0.48627451]
  [0.4        0.4627451  0.48627451]
  ...
  [0.48627451 0.50196078 0.45490196]
  [0.47843137 0.50196078 0.42745098]
  [0.48627451 0.51372549 0.43137255]]

 ...

 [[0.48235294 0.48235294 0.52941176]
  [0.45882353 0.4745098  0.51764706]
  [0.42745098 0.44313725 0.48627451]
  ...
  [0.21960784 0.20784314 0.19215686]
  [0.21176471 0.2        0.18431373]
  [0.19607843 0.18431373 0.16862745]]

 [[0.50196078 0.50196078 0.55686275]
  [0.4745098  0.49019608 0.52941176]
  [0.4627451  0.47843137 0.5254902 ]
  ...
  [0.25882353 0.2627451  0.24705882]
  [0.25882353 0.2627451  0.24705882]
  [0.25098039 0.25490196 0.23921569]]

 [[0.51372549 0.52156863 0.54901961]
  [0.49019608 0.50196078 0.55686275]
  [0.48235294 0.49803922 0.54509804]
  ...
  [0.24313725 0.23137255 0.21568627]
  [0.25882353 0.25490196 0.23921569]
  [0.28235294 0.28627451 0.27058824]]]",0
2024-09-10 12:14:53,0.1570500135421753,0.1050000041723251,9.829950332641602,"[[[0.42352941 0.4627451  0.49019608]
  [0.39215686 0.45098039 0.4745098 ]
  [0.4        0.4627451  0.48627451]
  ...
  [0.48627451 0.50196078 0.45882353]
  [0.48235294 0.50588235 0.43137255]
  [0.47843137 0.50196078 0.42745098]]

 [[0.39607843 0.47058824 0.49019608]
  [0.4        0.4627451  0.48627451]
  [0.39607843 0.45882353 0.48235294]
  ...
  [0.48627451 0.50196078 0.45490196]
  [0.48627451 0.50196078 0.45490196]
  [0.47843137 0.49411765 0.45098039]]

 [[0.4        0.4627451  0.48627451]
  [0.4        0.4627451  0.48627451]
  [0.4        0.4627451  0.48627451]
  ...
  [0.47843137 0.49411765 0.44705882]
  [0.47843137 0.49411765 0.44705882]
  [0.48235294 0.49803922 0.45098039]]

 ...

 [[0.47843137 0.49411765 0.5372549 ]
  [0.45098039 0.4745098  0.51764706]
  [0.42352941 0.43921569 0.48235294]
  ...
  [0.21960784 0.20784314 0.19215686]
  [0.2        0.18823529 0.17254902]
  [0.19215686 0.18039216 0.16470588]]

 [[0.50196078 0.50588235 0.55686275]
  [0.48627451 0.49803922 0.55294118]
  [0.47058824 0.48235294 0.53333333]
  ...
  [0.24705882 0.25098039 0.23529412]
  [0.25098039 0.25098039 0.23529412]
  [0.25490196 0.25882353 0.24313725]]

 [[0.5254902  0.5254902  0.57254902]
  [0.50588235 0.50588235 0.56078431]
  [0.49803922 0.49803922 0.54901961]
  ...
  [0.24313725 0.22745098 0.21176471]
  [0.25098039 0.25490196 0.23921569]
  [0.28627451 0.29019608 0.2745098 ]]]",0
2024-09-10 12:14:54,0.1570500135421753,0.1050000041723251,9.829950332641602,"[[[0.38431373 0.43529412 0.49019608]
  [0.35686275 0.42352941 0.4745098 ]
  [0.36078431 0.42745098 0.47843137]
  ...
  [0.42745098 0.46666667 0.44313725]
  [0.42745098 0.46666667 0.44313725]
  [0.42745098 0.46666667 0.44313725]]

 [[0.36862745 0.43529412 0.48627451]
  [0.35294118 0.42745098 0.47843137]
  [0.36078431 0.42745098 0.47843137]
  ...
  [0.43137255 0.47058824 0.44705882]
  [0.43137255 0.47058824 0.44705882]
  [0.43137255 0.47058824 0.44705882]]

 [[0.36862745 0.43529412 0.48627451]
  [0.36078431 0.42745098 0.47843137]
  [0.36078431 0.42745098 0.47843137]
  ...
  [0.43529412 0.4745098  0.45098039]
  [0.42745098 0.46666667 0.44313725]
  [0.42352941 0.4627451  0.43921569]]

 ...

 [[0.8        0.80392157 0.79607843]
  [0.80784314 0.81176471 0.79607843]
  [0.80784314 0.81176471 0.79607843]
  ...
  [0.18431373 0.18431373 0.18431373]
  [0.17647059 0.18039216 0.16470588]
  [0.16470588 0.16862745 0.15294118]]

 [[0.80784314 0.81176471 0.79607843]
  [0.80784314 0.81176471 0.79607843]
  [0.80784314 0.80784314 0.80784314]
  ...
  [0.20784314 0.20392157 0.20784314]
